Folder: Graphs/Example Data/Raman/CNT - TIM/Raytheon/Silicon - Ola/05-13-10

Note: README.md
# Graphs
A macOS app that manages the organization of data files and graphs them.

Licensed under the MIT licensing terms: https://opensource.org/licenses/MIT

Hildreth wrote the precursor to Graphs, then called GraphBase, during his Ph.D. to help manage the data he was collecting as part of his research on Metal-assisted Chemical Etching of Silicon.  He was becoming overwhelmed by the hundreds of data files he was collecting every week and was inspired by the Papers and iTunes applications on OS X (now macOS) to create an application that managed data.  GraphBase provided an easy template to create a parser, a simple UI to organize data into hiarchical folders, and leveraged the DataGraph framework (http://www.visualdatatools.com/DataGraph/Framework/) for graphing.  DataGraph (http://www.visualdatatools.com/DataGraph/) is an amazing 2D graphing application and you will need to purchase a DataGraph license from Visual Data Tools in order to use Graphs.

Graphs is a rewrite of GraphBase in Swift written by Connor and then re-written again by Hildreth that has been open sourced for use by all.  Please not that you will need a DataGraph license to create the graph templates used by the DataGraph framework underlying Graphs.  Hildreth plans to continue evolving this application.  The next plan improvements are: multithreading for import and parsing using the new Results type in Swift; and begin switching over to SwiftUI for the UI.  Long term, we hope to add support for data analysis and extraction.

# Overview
Graphs is a data management tool that allows you to store your raw data files in a text formate (CSV, tab delimited, etc.) and then have those files parsed and graphed when selected.  Graphs uses the DataGraph fromework 

To use Graphs, first you create an example graph, what we call a Graph Template, in DataGraph.  Format the graph the way you want it to look and make sure that the Data Columns are in the same order as the columns in your data.  Next, you  add your "Graph Template" to Graphs using either the Graph Template Inspector on the right side of Graphs using using the "+" sign on the bottom left of the application.  You can also drag-and-drop the file onto a folder in the Source List.  Once you add a Graph Template, you can assign it to be the default Graph Template for a folder and any sub-folders using the Folder Inspector.

The second step is to make a Paser using the Parser Inspector.  It might be helpful to have an example file already in Graphs (see Step 3) because you can use the Text Inspector to see what lines your Experimental Details, Header, and Data start at.  Add a Parse Template using the + sign in the Parse Inspector's table and give the Parse Template a name.  If your data has experimental details at the top, then select the checkbox and set the starting and ending lines for this information.  If your data has a Header, select the Header checkbox, give it starting and ending line numbers, and then select the type of s

File: Si - High Pressure.txt
300	228.664
306.115	228.511
312.23	222.593
318.345	226.349
324.46	204.789
330.576	213.308
336.691	214.521
342.806	229.374
348.921	210.539
355.036	211.142
361.151	202.303
367.266	200.586
373.381	198.532
379.496	183.59
385.612	194.365
391.727	184.333
397.842	171.068
403.957	175.231
410.072	190.007
416.187	163.274
422.302	176.953
428.417	171.801
434.532	173.317
440.647	178.284
446.763	173.932
452.878	159.675
458.993	152.148
465.108	164.848
471.223	164.089
477.338	166.245
483.453	159.042
489.568	163.637
495.683	161.547
501.799	155.594
507.914	157.52
514.029	158.773
520.144	161.02
526.259	150.23
532.374	155.817
538.489	157.935
544.604	149.653
550.719	151.604
556.835	156.663
562.95	162.126
569.065	153.308
575.18	159.487
581.295	152.402
587.41	161.026
593.525	158.965
599.64	155.746
605.755	148.862
611.87	163.034
617.986	162.333
624.101	158.876
630.216	168.02
636.331	163.978
642.446	178.826
648.561	168.896
654.676	166.195
660.791	168.279
666.906	178.323
673.022	175.052
679.137	185.275
685.252	179.292
691.367	183.952
697.482	183.509
703.597	186.333
709.712	192.301
715.827	190.839
721.942	199.024
728.058	199.735
734.173	207.883
740.288	210.612
746.403	218.67
752.518	212.111
758.633	222.739
764.748	205.351
770.863	223.954
776.978	224.37
783.094	218.55
789.209	227.189
795.324	231.257
801.439	236.141
807.554	232.697
813.669	231.953
819.784	251.748
825.899	249.59
832.014	247.773
838.13	259.471
844.245	261.385
850.36	264.166
856.475	250.929
862.59	248.266
868.705	228.504
874.82	231.051
880.935	221.738
887.05	207.374
893.165	200.802
899.281	203.434
905.396	189.975
911.511	183.664
917.626	179.423
923.741	185.955
929.856	183.861
935.971	165.394
942.086	164.602
948.201	168.408
954.317	168.798
960.432	164.363
966.547	179.933
972.662	167.215
978.777	166.275
984.892	162.199
991.007	159.891
997.122	174.633
1003.24	171.696
1009.35	166.849
1015.47	176.136
1021.58	178.217
1027.7	188.795
1033.81	181.771
1039.93	196.986
1046.04	190.266
1052.16	203.216
1058.27	200.414
1064.39	173.128
1070.5	177.963
1076.62	175.456
1082.73	168.873
1088.85	172.25
1094.96	168.522
1101.08	166.733
1107.19	172.005
1113.31	166.82
1119.42	161.232
1125.54	162.436
1131.65	156.033
1137.77	148.771
1143.88	165.682
1150	166.59
1156.12	163.441
1162.23	156.263
1168.35	159.561
1174.46	171.125
1180.58	170.675
1186.69	172.22
1192.81	174.081
1198.92	181.618
1205.04	170.96
1211.15	184.093
1217.27	182.956
1223.38	202.276
1229.5	198.964
1235.61	205.376
1241.73	213.349
1247.84	225.744
1253.96	230.417
1260.07	252.409
1266.19	243.863
1272.3	268.402
1278.42	294.892
1284.53	311.07
1290.65	343.074
1296.76	373.364
1302.88	413.691
1308.99	467.996
1315.11	513.25
1321.22	599.211
1327.34	650.149
1333.45	653.834
1339.57	679.174
1345.68	642.443
1351.8	579.543
1357.91	516.216
1364.03	468.328
1370.14	433.913
1376.26	369.417
1382.37	356.859
1388.49	325.407
1394.6	299.821
1400.72	292.483
1406.83	271.183
1412.95	249.24
1419.06	253.849
1425.18	248.938
1431.29	252.773
1437.41	247.142
1443.53	234.474
1449.64	229.287
1455.76	237.086
1461.87	234.486
1467.99	239.659
1474.1	228.717
1480.22	237.032
1486.33	234.972
1492.45	232.766
1498.56	241.95
1504.68	245.657
1510.79	236.468
1516.91	254.844
1523.02	259.59
1529.14	275.236
1535.25	304.639
1541.37	333.501
1547.48	398.91
1553.6	443.214
1559.71	486.821
1565.83	538.349
1571.94	569.074
1578.06	548.651
1584.17	524.796
1590.29	502.132
1596.4	471.408
1602.52	441.352
1608.63	412.786
1614.75	344.372
1620.86	306.241
1626.98	257.036
1633.09	223.059
1639.21	191.788
1645.32	169.514
1651.44	151.479
1657.55	142.864
1663.67	126.216
1669.78	116.78
1675.9	113.638
1682.01	110.265
1688.13	106.517
1694.24	106.578
1700.36	96.8075
1706.47	102.741
1712.59	99.2372
1718.71	97.6987
1724.82	87.8524
1730.94	95.671
1737.05	94.7197
1743.17	88.3777
1749.28	94.5083
1755.4	95.0005
1761.51	89.5436
1767.63	84.6703
1773.74	90.3475
1779.86	84.7991
1785.97	96.986
1792.09	88.2158
1798.2	88.2113
1804.32	78.3434
1810.43	87.6172
1816.55	87.9148
1822.66	89.9243
1828.78	84.5935
1834.89	80.9724
1841.01	89.4303
1847.12	91.8485
1853.24	93.9725
1859.35	85.4765
1865.47	88.2454
1871.58	82.4609
1877.7	84.0268
1883.81	91.192
1889.93	81.7173
1896.04	87.9882
1902.16	83.2432
1908.27	83.7076
1914.39	81.7747
1920.5	82.3125
1926.62	81.0928
1932.73	83.3269
1938.85	84.4566
1944.96	83.7155
1951.08	79.527
1957.19	88.0218
1963.31	79.5087
1969.42	82.0494
1975.54	84.2203
1981.65	82.367
1987.77	81.1476
1993.88	82.5403
2000	87.1401

File: Si - Low Pressure - 10 min.txt
300	219.47
306.115	221.967
312.23	213.449
318.345	218.285
324.46	203.984
330.576	204.843
336.691	203.596
342.806	216.899
348.921	192.262
355.036	189.654
361.151	179.885
367.266	179.715
373.381	185.573
379.496	170.906
385.612	180.078
391.727	170.723
397.842	181.615
403.957	175.601
410.072	166.17
416.187	165.892
422.302	156.957
428.417	169.087
434.532	155.783
440.647	168.518
446.763	158.463
452.878	147.443
458.993	149.277
465.108	152.2
471.223	139.568
477.338	157.111
483.453	155.275
489.568	158.196
495.683	129.547
501.799	149.362
507.914	136.788
514.029	134.979
520.144	145.589
526.259	154.471
532.374	146.098
538.489	131.597
544.604	138.568
550.719	150.639
556.835	131.702
562.95	146.333
569.065	152.783
575.18	136
581.295	140.788
587.41	144.399
593.525	147.357
599.64	148.949
605.755	156.936
611.87	142.741
617.986	155.586
624.101	145.928
630.216	145.98
636.331	152.183
642.446	140.343
648.561	158.257
654.676	148.257
660.791	164.521
666.906	159.6
673.022	157.231
679.137	167.377
685.252	161.176
691.367	161.024
697.482	171.222
703.597	173.48
709.712	171.582
715.827	171.914
721.942	175.551
728.058	186.144
734.173	190.814
740.288	189.788
746.403	198.418
752.518	205.079
758.633	201.869
764.748	202.076
770.863	207.484
776.978	205.298
783.094	212.41
789.209	206.507
795.324	206.788
801.439	224.565
807.554	200.778
813.669	231.252
819.784	236.023
825.899	233.263
832.014	229.825
838.13	256.535
844.245	226.654
850.36	239.684
856.475	229.778
862.59	234.452
868.705	228.641
874.82	210.482
880.935	202.375
887.05	197.354
893.165	188.681
899.281	176.465
905.396	169.975
911.511	174.324
917.626	164.975
923.741	154.01
929.856	166.342
935.971	146.727
942.086	153.434
948.201	148.329
954.317	159.082
960.432	143.795
966.547	150.667
972.662	150.252
978.777	147.077
984.892	148
991.007	158.959
997.122	157.976
1003.24	169.044
1009.35	160.271
1015.47	156.14
1021.58	164.256
1027.7	171.355
1033.81	179.033
1039.93	174.695
1046.04	169.261
1052.16	170.745
1058.27	170.556
1064.39	152.644
1070.5	164.114
1076.62	163.493
1082.73	162.227
1088.85	158.501
1094.96	157.64
1101.08	160.492
1107.19	147.81
1113.31	149.599
1119.42	157.282
1125.54	154.486
1131.65	153.371
1137.77	144.543
1143.88	145.743
1150	147.543
1156.12	155.032
1162.23	151.093
1168.35	150.673
1174.46	158.124
1180.58	158.74
1186.69	171.333
1192.81	170.566
1198.92	159.51
1205.04	171.208
1211.15	180.275
1217.27	173.652
1223.38	176.848
1229.5	197.85
1235.61	211.433
1241.73	214.682
1247.84	228.35
1253.96	232.664
1260.07	236.861
1266.19	265.301
1272.3	277.749
1278.42	282.146
1284.53	309.825
1290.65	336.81
1296.76	374.903
1302.88	426.922
1308.99	475.54
1315.11	544.576
1321.22	591.891
1327.34	637.136
1333.45	688.081
1339.57	664.304
1345.68	617.725
1351.8	564.592
1357.91	505.804
1364.03	457.297
1370.14	416.573
1376.26	374.577
1382.37	333.194
1388.49	320.879
1394.6	301.874
1400.72	267.72
1406.83	253.303
1412.95	251.565
1419.06	238.279
1425.18	244.525
1431.29	232.534
1437.41	219.858
1443.53	217.864
1449.64	216.698
1455.76	209.924
1461.87	233.851
1467.99	228.335
1474.1	225.089
1480.22	218.138
1486.33	232.21
1492.45	227.766
1498.56	226.829
1504.68	236.623
1510.79	239.142
1516.91	242.851
1523.02	239.725
1529.14	248.625
1535.25	283.348
1541.37	317.43
1547.48	359.623
1553.6	398.005
1559.71	450.139
1565.83	511.352
1571.94	562.704
1578.06	560.869
1584.17	545.26
1590.29	514.781
1596.4	483.353
1602.52	461.102
1608.63	434.645
1614.75	365.916
1620.86	304.214
1626.98	245.74
1633.09	213.155
1639.21	173.536
1645.32	164.095
1651.44	147.175
1657.55	132.758
1663.67	117.728
1669.78	114.045
1675.9	105.278
1682.01	105.564
1688.13	100.679
1694.24	97.6821
1700.36	97.2763
1706.47	99.0877
1712.59	90.9885
1718.71	90.1497
1724.82	92.406
1730.94	87.3662
1737.05	82.0914
1743.17	88.8913
1749.28	87.0568
1755.4	85.1066
1761.51	86.1528
1767.63	82.3036
1773.74	76.588
1779.86	79.8373
1785.97	70.728
1792.09	82.8698
1798.2	87.002
1804.32	74.4848
1810.43	75.3732
1816.55	77.5815
1822.66	85.4032
1828.78	80.2418
1834.89	80.3885
1841.01	75.1491
1847.12	74.1111
1853.24	73.6495
1859.35	76.1793
1865.47	77
1871.58	79.4586
1877.7	77.7946
1883.81	76.3579
1889.93	77.3362
1896.04	76.3201
1902.16	71.4053
1908.27	68.5223
1914.39	68.2135
1920.5	67.9064
1926.62	76.9279
1932.73	83.6442
1938.85	76.332
1944.96	85.7383
1951.08	74.5624
1957.19	85.9719
1963.31	72.7687
1969.42	76.2304
1975.54	80.113
1981.65	74.9388
1987.77	79.6598
1993.88	74.2344
2000	72.458