Folder: Graphs/Example Data/Raman/CNT - TIM/Raytheon/Microwave/Test 2 - From Anu

Note: README.md
# Graphs
A macOS app that manages the organization of data files and graphs them.

Licensed under the MIT licensing terms: https://opensource.org/licenses/MIT

Hildreth wrote the precursor to Graphs, then called GraphBase, during his Ph.D. to help manage the data he was collecting as part of his research on Metal-assisted Chemical Etching of Silicon.  He was becoming overwhelmed by the hundreds of data files he was collecting every week and was inspired by the Papers and iTunes applications on OS X (now macOS) to create an application that managed data.  GraphBase provided an easy template to create a parser, a simple UI to organize data into hiarchical folders, and leveraged the DataGraph framework (http://www.visualdatatools.com/DataGraph/Framework/) for graphing.  DataGraph (http://www.visualdatatools.com/DataGraph/) is an amazing 2D graphing application and you will need to purchase a DataGraph license from Visual Data Tools in order to use Graphs.

Graphs is a rewrite of GraphBase in Swift written by Connor and then re-written again by Hildreth that has been open sourced for use by all.  Please not that you will need a DataGraph license to create the graph templates used by the DataGraph framework underlying Graphs.  Hildreth plans to continue evolving this application.  The next plan improvements are: multithreading for import and parsing using the new Results type in Swift; and begin switching over to SwiftUI for the UI.  Long term, we hope to add support for data analysis and extraction.

# Overview
Graphs is a data management tool that allows you to store your raw data files in a text formate (CSV, tab delimited, etc.) and then have those files parsed and graphed when selected.  Graphs uses the DataGraph fromework 

To use Graphs, first you create an example graph, what we call a Graph Template, in DataGraph.  Format the graph the way you want it to look and make sure that the Data Columns are in the same order as the columns in your data.  Next, you  add your "Graph Template" to Graphs using either the Graph Template Inspector on the right side of Graphs using using the "+" sign on the bottom left of the application.  You can also drag-and-drop the file onto a folder in the Source List.  Once you add a Graph Template, you can assign it to be the default Graph Template for a folder and any sub-folders using the Folder Inspector.

The second step is to make a Paser using the Parser Inspector.  It might be helpful to have an example file already in Graphs (see Step 3) because you can use the Text Inspector to see what lines your Experimental Details, Header, and Data start at.  Add a Parse Template using the + sign in the Parse Inspector's table and give the Parse Template a name.  If your data has experimental details at the top, then select the checkbox and set the starting and ending lines for this information.  If your data has a Header, select the Header checkbox, give it starting and ending line numbers, and then select the type of s

File: Batch 23 - noMW - bottom.txt
300	348.094
306.115	390.18
312.23	361.415
318.345	363.924
324.46	372.549
330.576	369.582
336.691	364.694
342.806	361.247
348.921	368.353
355.036	358.754
361.151	368.271
367.266	341.853
373.381	340.817
379.496	344.775
385.612	343.073
391.727	342.626
397.842	343.891
403.957	333.305
410.072	345.166
416.187	348.747
422.302	330.562
428.417	321.611
434.532	326.748
440.647	323.55
446.763	321.627
452.878	335.706
458.993	319.492
465.108	316.128
471.223	305.191
477.338	302.914
483.453	293.13
489.568	297.196
495.683	272.261
501.799	283.938
507.914	286.005
514.029	282.869
520.144	275.147
526.259	270.546
532.374	284.011
538.489	275.139
544.604	270.995
550.719	283.048
556.835	281.368
562.95	284.251
569.065	295.243
575.18	281.939
581.295	282.213
587.41	288.609
593.525	287.389
599.64	282.552
605.755	286.728
611.87	288.833
617.986	293.234
624.101	298.07
630.216	277.137
636.331	299.128
642.446	294.747
648.561	307.812
654.676	307.61
660.791	308.362
666.906	307.135
673.022	301.495
679.137	314.643
685.252	308.773
691.367	303.793
697.482	304.798
703.597	314.567
709.712	317.161
715.827	325.929
721.942	320.153
728.058	331.452
734.173	324.901
740.288	320.504
746.403	337.532
752.518	340.724
758.633	341.824
764.748	345.148
770.863	341.303
776.978	352.024
783.094	347.665
789.209	358.709
795.324	367.748
801.439	362.494
807.554	369.344
813.669	370.184
819.784	371.112
825.899	380.004
832.014	381.585
838.13	383.669
844.245	372.334
850.36	390.188
856.475	380.885
862.59	384.102
868.705	351.401
874.82	367.018
880.935	358.75
887.05	354.185
893.165	349.131
899.281	350.202
905.396	330.821
911.511	337.136
917.626	337.446
923.741	332.027
929.856	332.7
935.971	339.098
942.086	339.261
948.201	340.573
954.317	337.09
960.432	334.747
966.547	334.778
972.662	338.037
978.777	342.518
984.892	354.396
991.007	371.073
997.122	370.33
1003.24	389.964
1009.35	397.021
1015.47	407.465
1021.58	419.527
1027.7	432.585
1033.81	450.699
1039.93	440.9
1046.04	457.305
1052.16	470.279
1058.27	476.321
1064.39	477.503
1070.5	494.995
1076.62	496.808
1082.73	516.4
1088.85	537.908
1094.96	543.653
1101.08	554.795
1107.19	565.063
1113.31	593.696
1119.42	582.255
1125.54	603.668
1131.65	616.323
1137.77	633.263
1143.88	652.65
1150	681.297
1156.12	685.299
1162.23	724.648
1168.35	732.817
1174.46	744.625
1180.58	762.557
1186.69	760.233
1192.81	780.074
1198.92	792.422
1205.04	829.956
1211.15	835.445
1217.27	878.251
1223.38	885.378
1229.5	932.074
1235.61	950.418
1241.73	1008.47
1247.84	1075.63
1253.96	1105.94
1260.07	1156.46
1266.19	1211.97
1272.3	1272.05
1278.42	1343.06
1284.53	1417.03
1290.65	1515.21
1296.76	1634.08
1302.88	1734.89
1308.99	1839.51
1315.11	2001.07
1321.22	2082.18
1327.34	2210.02
1333.45	2235.8
1339.57	2260.8
1345.68	2227.05
1351.8	2120.24
1357.91	2026.84
1364.03	1961.32
1370.14	1870.91
1376.26	1750.14
1382.37	1648.44
1388.49	1548.93
1394.6	1484.84
1400.72	1388.52
1406.83	1338.48
1412.95	1274.72
1419.06	1263.47
1425.18	1230.58
1431.29	1195.95
1437.41	1194.31
1443.53	1145.73
1449.64	1150.9
1455.76	1144.24
1461.87	1131.38
1467.99	1108.2
1474.1	1119.23
1480.22	1159.59
1486.33	1120.48
1492.45	1138.38
1498.56	1138.83
1504.68	1160.61
1510.79	1164.8
1516.91	1187.88
1523.02	1202.01
1529.14	1257.75
1535.25	1323.62
1541.37	1382.95
1547.48	1460.45
1553.6	1556.33
1559.71	1653.45
1565.83	1795.7
1571.94	1914.89
1578.06	2055.69
1584.17	2097.87
1590.29	2158.94
1596.4	2139.9
1602.52	2008.05
1608.63	1854.89
1614.75	1637.35
1620.86	1435.67
1626.98	1232.77
1633.09	1057.25
1639.21	886.872
1645.32	776.225
1651.44	689.004
1657.55	617.163
1663.67	551.674
1669.78	498.793
1675.9	442.212
1682.01	415.113
1688.13	386.91
1694.24	361.834
1700.36	348.838
1706.47	332.901
1712.59	325.039
1718.71	308.02
1724.82	306.778
1730.94	300.842
1737.05	292.909
1743.17	288.807
1749.28	288.068
1755.4	287.489
1761.51	283.051
1767.63	268.441
1773.74	284.002
1779.86	282.702
1785.97	267.717
1792.09	262.97
1798.2	266.22
1804.32	269.128
1810.43	265.016
1816.55	266.451
1822.66	266.777
1828.78	264.561
1834.89	267.962
1841.01	269.391
1847.12	262.073
1853.24	258.082
1859.35	263.223
1865.47	254.161
1871.58	251.451
1877.7	249.845
1883.81	250.09
1889.93	256.477
1896.04	252.35
1902.16	253.845
1908.27	241.234
1914.39	251.972
1920.5	246.592
1926.62	252.528
1932.73	250.46
1938.85	247.277
1944.96	242.778
1951.08	253.516
1957.19	242.552
1963.31	247.326
1969.42	246.896
1975.54	240.625
1981.65	245.054
1987.77	248.981
1993.88	239.682
2000	247.214

File: Batch 23 - noMW - top.txt
300	267.713
306.115	295.657
312.23	285.184
318.345	279.269
324.46	265.515
330.576	275.5
336.691	284.726
342.806	253.933
348.921	265.897
355.036	256.801
361.151	271.256
367.266	246.569
373.381	248.569
379.496	258.759
385.612	258.486
391.727	248.374
397.842	242.412
403.957	255.96
410.072	252.866
416.187	245.501
422.302	238.249
428.417	246.722
434.532	247.22
440.647	250.121
446.763	233.559
452.878	228.433
458.993	237.423
465.108	235.699
471.223	235.396
477.338	228.041
483.453	226.4
489.568	212.936
495.683	217.027
501.799	208.705
507.914	209.106
514.029	206.506
520.144	198.109
526.259	205.487
532.374	194.81
538.489	198.378
544.604	198.819
550.719	210.106
556.835	212.375
562.95	218.187
569.065	202.86
575.18	217.638
581.295	201.833
587.41	203.884
593.525	208.362
599.64	219.148
605.755	215.774
611.87	215.441
617.986	213.303
624.101	222.245
630.216	218.263
636.331	226.065
642.446	224.997
648.561	222.185
654.676	232.852
660.791	231.285
666.906	233.605
673.022	225.762
679.137	235.799
685.252	226.208
691.367	222.604
697.482	233.288
703.597	236.154
709.712	240.638
715.827	243.659
721.942	244.502
728.058	256.118
734.173	254.032
740.288	265.25
746.403	262.041
752.518	262.192
758.633	270.198
764.748	272.069
770.863	270.6
776.978	269.636
783.094	273.201
789.209	274.426
795.324	282.852
801.439	278.853
807.554	302.671
813.669	292.475
819.784	303.36
825.899	298.101
832.014	295.061
838.13	283.95
844.245	293.947
850.36	305.379
856.475	307.496
862.59	284.493
868.705	275.278
874.82	295.552
880.935	265
887.05	270.899
893.165	266.36
899.281	261.275
905.396	262
911.511	244.714
917.626	257.446
923.741	252.066
929.856	251.956
935.971	257.289
942.086	258.774
948.201	243.202
954.317	246.881
960.432	260.564
966.547	263.749
972.662	258.581
978.777	267.257
984.892	270.723
991.007	266.099
997.122	289.519
1003.24	284.464
1009.35	301.092
1015.47	301.059
1021.58	316.459
1027.7	385.057
1033.81	333.57
1039.93	326.681
1046.04	338.087
1052.16	351.741
1058.27	366.381
1064.39	365.838
1070.5	367.99
1076.62	378.423
1082.73	383.78
1088.85	380.806
1094.96	397.731
1101.08	413.116
1107.19	411.067
1113.31	414.741
1119.42	434.566
1125.54	433.782
1131.65	455.728
1137.77	478.575
1143.88	477.68
1150	477.39
1156.12	490.014
1162.23	495.952
1168.35	507.161
1174.46	509.279
1180.58	548.497
1186.69	507.656
1192.81	533.522
1198.92	560.361
1205.04	590.665
1211.15	593.576
1217.27	604.173
1223.38	622.198
1229.5	654.944
1235.61	675.549
1241.73	701.122
1247.84	727.27
1253.96	764.75
1260.07	819.512
1266.19	858.962
1272.3	896.79
1278.42	918.462
1284.53	1025.47
1290.65	1111.4
1296.76	1205.44
1302.88	1302.69
1308.99	1419.41
1315.11	1511.34
1321.22	1649.61
1327.34	1801.63
1333.45	1848.45
1339.57	1851.67
1345.68	1822.32
1351.8	1787.49
1357.91	1685.99
1364.03	1561.08
1370.14	1448.36
1376.26	1371.76
1382.37	1235.25
1388.49	1172.29
1394.6	1083.81
1400.72	1038.67
1406.83	993.526
1412.95	963.651
1419.06	923.187
1425.18	915.122
1431.29	901.34
1437.41	869.916
1443.53	858.46
1449.64	863.206
1455.76	839.945
1461.87	854.346
1467.99	845.376
1474.1	840.741
1480.22	857.639
1486.33	870.099
1492.45	852.411
1498.56	862.605
1504.68	856.613
1510.79	897.102
1516.91	911.896
1523.02	934.376
1529.14	964.005
1535.25	1047.07
1541.37	1117.58
1547.48	1215.99
1553.6	1324.54
1559.71	1424.23
1565.83	1568.75
1571.94	1634.23
1578.06	1717.73
1584.17	1753.4
1590.29	1727.78
1596.4	1706.62
1602.52	1612.6
1608.63	1501.53
1614.75	1359.19
1620.86	939.876
1626.98	1004.88
1633.09	839.35
1639.21	732.831
1645.32	618.131
1651.44	535.956
1657.55	453.904
1663.67	407.261
1669.78	362.059
1675.9	324.626
1682.01	306.312
1688.13	281.441
1694.24	266.643
1700.36	256.613
1706.47	241.5
1712.59	234.455
1718.71	230.339
1724.82	222.938
1730.94	212.472
1737.05	212.53
1743.17	204.145
1749.28	210.871
1755.4	194.381
1761.51	202.013
1767.63	183.256
1773.74	200.277
1779.86	193.943
1785.97	193.085
1792.09	196.259
1798.2	192.032
1804.32	188.547
1810.43	195.608
1816.55	191.074
1822.66	190.451
1828.78	178.597
1834.89	181.225
1841.01	188.827
1847.12	186.179
1853.24	185.822
1859.35	176.736
1865.47	185.642
1871.58	177.411
1877.7	184.576
1883.81	184.053
1889.93	183.975
1896.04	176.422
1902.16	186.811
1908.27	177.549
1914.39	182.869
1920.5	172.246
1926.62	178.435
1932.73	167.045
1938.85	172.101
1944.96	173.969
1951.08	175.18
1957.19	182.962
1963.31	175.041
1969.42	179.576
1975.54	182.222
1981.65	175.938
1987.77	179.867
1993.88	182.474
2000	170.415

File: LPCVD-Tc-650 - 5min - C_Micro-5min - bottom.txt
300	417.256
306.115	421.613
312.23	410.697
318.345	418.982
324.46	417.412
330.576	404.94
336.691	404.499
342.806	410.302
348.921	398.309
355.036	388.085
361.151	399.514
367.266	400.986
373.381	389.804
379.496	392.009
385.612	388.209
391.727	385.906
397.842	388.536
403.957	365.077
410.072	380.58
416.187	376.998
422.302	382
428.417	380.62
434.532	371.696
440.647	368.937
446.763	365.325
452.878	363.736
458.993	354.034
465.108	345.768
471.223	357.045
477.338	338.17
483.453	332.86
489.568	328.374
495.683	329.047
501.799	323.79
507.914	309.751
514.029	323.68
520.144	316.282
526.259	316
532.374	310.379
538.489	323.736
544.604	310.963
550.719	314.987
556.835	319.167
562.95	309.249
569.065	325.087
575.18	318.315
581.295	321.139
587.41	325.775
593.525	322.966
599.64	333.274
605.755	312.65
611.87	314.196
617.986	318.554
624.101	330.762
630.216	331.592
636.331	332.228
642.446	325.073
648.561	344.223
654.676	333.551
660.791	338.096
666.906	345.744
673.022	357.133
679.137	337.312
685.252	358.616
691.367	352.563
697.482	366.448
703.597	337.539
709.712	356.416
715.827	349.228
721.942	364.547
728.058	375.156
734.173	366.561
740.288	364.67
746.403	391.388
752.518	375.391
758.633	392.36
764.748	395.823
770.863	397.426
776.978	384.61
783.094	385.579
789.209	382.994
795.324	406.996
801.439	397.129
807.554	427.779
813.669	422.646
819.784	413.34
825.899	409.858
832.014	441.189
838.13	439.93
844.245	428.806
850.36	436.55
856.475	428.296
862.59	422.369
868.705	407.805
874.82	411.89
880.935	408.502
887.05	398.226
893.165	392.068
899.281	386.824
905.396	383.066
911.511	385.042
917.626	393.296
923.741	383.257
929.856	397.312
935.971	399.885
942.086	394.148
948.201	387.525
954.317	397.003
960.432	399.587
966.547	407.805
972.662	401.498
978.777	405.645
984.892	410.262
991.007	435.374
997.122	424.491
1003.24	440.684
1009.35	449.291
1015.47	469.707
1021.58	498.587
1027.7	500.941
1033.81	511.053
1039.93	530.075
1046.04	545.198
1052.16	545.923
1058.27	555.495
1064.39	573.753
1070.5	590.682
1076.62	582.485
1082.73	599.268
1088.85	626.103
1094.96	628.949
1101.08	641.713
1107.19	646.634
1113.31	666.946
1119.42	689.503
1125.54	705.129
1131.65	730.398
1137.77	723.334
1143.88	749.625
1150	794.163
1156.12	797.955
1162.23	829.828
1168.35	852.901
1174.46	847.474
1180.58	891.122
1186.69	885.487
1192.81	913.616
1198.92	926.092
1205.04	963.349
1211.15	981.364
1217.27	1005.95
1223.38	1061.22
1229.5	1101.14
1235.61	1139.61
1241.73	1212.9
1247.84	1263.55
1253.96	1305.72
1260.07	1378.23
1266.19	1420.73
1272.3	1526.61
1278.42	1631.59
1284.53	1747.18
1290.65	1862.03
1296.76	2011.69
1302.88	2156.89
1308.99	2332.92
1315.11	2488.24
1321.22	2688.39
1327.34	2805.77
1333.45	2886.34
1339.57	2870.68
1345.68	2847.24
1351.8	2879.77
1357.91	2563.62
1364.03	2451.84
1370.14	2307.98
1376.26	2112.24
1382.37	1973.57
1388.49	1874.78
1394.6	1785.47
1400.72	1700.76
1406.83	1618.59
1412.95	1568.23
1419.06	1528.69
1425.18	1465.9
1431.29	1423.61
1437.41	1407.68
1443.53	1387.25
1449.64	1384.72
1455.76	1380.17
1461.87	1367.86
1467.99	1363.39
1474.1	1374.89
1480.22	1372.98
1486.33	1396.55
1492.45	1370.43
1498.56	1386.51
1504.68	1406.5
1510.79	1442.34
1516.91	1467.81
1523.02	1529.01
1529.14	1583.93
1535.25	1666.54
1541.37	1741.13
1547.48	1897.21
1553.6	2076.23
1559.71	2179.83
1565.83	2357.35
1571.94	2524.52
1578.06	2633.35
1584.17	2695.69
1590.29	2683.85
1596.4	2643.25
1602.52	2506.35
1608.63	2294.02
1614.75	2034.17
1620.86	1739.78
1626.98	1470.25
1633.09	1272.38
1639.21	1094.69
1645.32	938.013
1651.44	816.156
1657.55	708.393
1663.67	633.025
1669.78	562.015
1675.9	512.796
1682.01	468.794
1688.13	443.879
1694.24	415.36
1700.36	397.527
1706.47	379.036
1712.59	365.905
1718.71	361.866
1724.82	345.513
1730.94	335.013
1737.05	329.863
1743.17	324.678
1749.28	321.43
1755.4	316.518
1761.51	310.892
1767.63	314.921
1773.74	307.531
1779.86	308.678
1785.97	316.993
1792.09	301.788
1798.2	297.008
1804.32	293.953
1810.43	301.509
1816.55	290.424
1822.66	288.279
1828.78	302.872
1834.89	284.593
1841.01	286.234
1847.12	277.723
1853.24	286.062
1859.35	290.183
1865.47	285.64
1871.58	289.102
1877.7	282.275
1883.81	275.069
1889.93	270.739
1896.04	278.201
1902.16	271.116
1908.27	284.533
1914.39	285.169
1920.5	273.618
1926.62	279.792
1932.73	274.16
1938.85	275.25
1944.96	276.143
1951.08	288.362
1957.19	289.12
1963.31	277.338
1969.42	278.568
1975.54	271.428
1981.65	282.404
1987.77	264.952
1993.88	273.633
2000	281.111

File: LPCVD-Tc-650 - 5min - C_Micro-5min - top.txt
300	237.228
306.115	236.122
312.23	252.794
318.345	245.666
324.46	234.509
330.576	239.352
336.691	240.169
342.806	233.046
348.921	225.353
355.036	228.377
361.151	226.883
367.266	226.497
373.381	228.843
379.496	220.717
385.612	229.731
391.727	212.335
397.842	224.644
403.957	224.213
410.072	214.164
416.187	223.248
422.302	218.739
428.417	211.745
434.532	221.002
440.647	201.038
446.763	214.73
452.878	208.554
458.993	202.437
465.108	192.451
471.223	198.558
477.338	201.43
483.453	197.77
489.568	185.037
495.683	196.369
501.799	191.238
507.914	178.372
514.029	178.578
520.144	172.397
526.259	185.818
532.374	177.502
538.489	175.719
544.604	174.282
550.719	178.755
556.835	181.535
562.95	174
569.065	188.434
575.18	183.07
581.295	190.139
587.41	192.532
593.525	193.546
599.64	183.143
605.755	188.798
611.87	189.167
617.986	197.02
624.101	187.124
630.216	202.956
636.331	192.709
642.446	197.893
648.561	202.834
654.676	208.151
660.791	199.467
666.906	216.09
673.022	209.721
679.137	210.393
685.252	208.787
691.367	215.032
697.482	211.41
703.597	209.813
709.712	212.618
715.827	227.979
721.942	219.074
728.058	225.586
734.173	229.041
740.288	228.929
746.403	238.61
752.518	246.468
758.633	239.104
764.748	243.497
770.863	237.931
776.978	235.93
783.094	249.012
789.209	254.617
795.324	249.602
801.439	263.018
807.554	248.894
813.669	263.065
819.784	264.633
825.899	268.048
832.014	268.899
838.13	264.169
844.245	268.268
850.36	276.518
856.475	281.631
862.59	263.882
868.705	250.138
874.82	248.806
880.935	239.496
887.05	250.092
893.165	233.271
899.281	252.965
905.396	230.432
911.511	221.773
917.626	221.9
923.741	224.701
929.856	219.731
935.971	219.153
942.086	228.551
948.201	225.298
954.317	214.488
960.432	211.348
966.547	216.306
972.662	229.394
978.777	220.957
984.892	221.251
991.007	234.335
997.122	245.26
1003.24	252.227
1009.35	240.357
1015.47	267.797
1021.58	261.921
1027.7	275.938
1033.81	294.662
1039.93	291.234
1046.04	289.33
1052.16	298.62
1058.27	292.399
1064.39	307.476
1070.5	320.194
1076.62	321.946
1082.73	335.192
1088.85	344.692
1094.96	341.091
1101.08	344.203
1107.19	371.852
1113.31	380.579
1119.42	373.151
1125.54	367.651
1131.65	383.167
1137.77	421.286
1143.88	407.701
1150	409.757
1156.12	429.75
1162.23	434.947
1168.35	418.828
1174.46	444.976
1180.58	449.839
1186.69	455.091
1192.81	461.116
1198.92	493.143
1205.04	507.63
1211.15	525.942
1217.27	532.408
1223.38	548.183
1229.5	580.068
1235.61	575.833
1241.73	623.081
1247.84	658.261
1253.96	694.628
1260.07	720.453
1266.19	763.801
1272.3	828.414
1278.42	879.783
1284.53	939.366
1290.65	1019.42
1296.76	1107.36
1302.88	1242.25
1308.99	1389.53
1315.11	1548.48
1321.22	1790.62
1327.34	1965.04
1333.45	2140
1339.57	2267.93
1345.68	2255.53
1351.8	2142.5
1357.91	1986.92
1364.03	1791.21
1370.14	1613.4
1376.26	1469.71
1382.37	1351.68
1388.49	1207.15
1394.6	1107.48
1400.72	1045.3
1406.83	1005.72
1412.95	935.034
1419.06	909.588
1425.18	856.307
1431.29	839.402
1437.41	820.197
1443.53	793.931
1449.64	796.134
1455.76	775.788
1461.87	798.253
1467.99	787.454
1474.1	788.489
1480.22	772.972
1486.33	783.862
1492.45	787.034
1498.56	775.771
1504.68	790.286
1510.79	814.29
1516.91	803.445
1523.02	812.711
1529.14	851.648
1535.25	894.071
1541.37	952.449
1547.48	1034.55
1553.6	1146.04
1559.71	1233.23
1565.83	1374.48
1571.94	1536.19
1578.06	1656.03
1584.17	1754.46
1590.29	1812.86
1596.4	1780.73
1602.52	1775.2
1608.63	1676.38
1614.75	1593.61
1620.86	1415.99
1626.98	1186.92
1633.09	990.262
1639.21	816.238
1645.32	669.353
1651.44	572.958
1657.55	479.431
1663.67	408.965
1669.78	354.491
1675.9	307.136
1682.01	273.094
1688.13	253.215
1694.24	239.368
1700.36	228.97
1706.47	208.64
1712.59	208.196
1718.71	205.252
1724.82	194.748
1730.94	191.862
1737.05	186.575
1743.17	179.556
1749.28	178.565
1755.4	179.694
1761.51	174.753
1767.63	174.449
1773.74	183.274
1779.86	178.047
1785.97	171.43
1792.09	175.307
1798.2	176.047
1804.32	169.206
1810.43	169.537
1816.55	167.23
1822.66	163.347
1828.78	175.575
1834.89	164.871
1841.01	161.236
1847.12	168.385
1853.24	165.729
1859.35	162.756
1865.47	161.715
1871.58	153.425
1877.7	164.941
1883.81	151.837
1889.93	160.711
1896.04	162.77
1902.16	154.663
1908.27	164.137
1914.39	159.749
1920.5	151.95
1926.62	157.997
1932.73	153.624
1938.85	161.255
1944.96	158.748
1951.08	162.587
1957.19	152.125
1963.31	156.239
1969.42	159.44
1975.54	152.977
1981.65	161.795
1987.77	163.557
1993.88	166.392
2000	160.57

File: LPCVD-Tc-700 - 5min - C_Micro-5min - _2.txt
200	324.591
207.442	337.671
214.885	336.362
222.327	347.211
229.77	335.267
237.212	330.747
244.655	336.52
252.097	347.518
259.54	333.896
266.982	346.67
274.425	338.03
281.867	322.524
289.31	319.282
296.752	315.689
304.195	320.285
311.637	307.998
319.08	317.774
326.522	307.399
333.965	284.335
341.407	306.495
348.85	290.015
356.292	297.209
363.735	287.109
371.177	287.861
378.62	283.029
386.062	284.61
393.505	280.815
400.947	270.502
408.39	269.823
415.832	282.248
423.275	273.193
430.717	265.297
438.16	259.045
445.602	253.828
453.045	258.69
460.487	258.681
467.93	249.726
475.372	244.134
482.815	231.377
490.257	243.601
497.7	242.041
505.142	234.386
512.585	233.307
520.027	230.568
527.47	220.647
534.912	227.05
542.355	221.945
549.797	224.246
557.24	223.816
564.682	221.872
572.125	233.032
579.567	233.574
587.009	237.877
594.452	244.166
601.894	250.683
609.337	236.423
616.779	245.226
624.222	240.768
631.664	240.677
639.107	255.031
646.549	260.193
653.992	247.389
661.434	253.137
668.877	260.691
676.319	260.191
683.762	248.308
691.204	244.941
698.647	262.363
706.089	257.958
713.532	260.069
720.974	266.16
728.417	269.366
735.859	269.631
743.302	285.881
750.744	280.913
758.187	291.59
765.629	285.232
773.072	301.975
780.514	292.339
787.957	309.09
795.399	308.806
802.842	318.668
810.284	316.158
817.727	313.827
825.169	333.47
832.612	318.558
840.054	327.215
847.497	344.465
854.939	324.486
862.382	305.908
869.824	300.245
877.267	294.614
884.709	291.499
892.152	282.212
899.594	283.661
907.037	286.113
914.479	271.55
921.922	271.477
929.364	274.081
936.807	276.368
944.249	288.588
951.691	282.71
959.134	285
966.576	279.847
974.019	300.263
981.461	289.673
988.904	303.573
996.346	307.508
1003.79	323.724
1011.23	330.56
1018.67	341.243
1026.12	352.902
1033.56	366.333
1041	368.739
1048.44	374.692
1055.89	383.456
1063.33	386.094
1070.77	404.344
1078.21	392.345
1085.66	421.366
1093.1	435.842
1100.54	448.205
1107.98	454.287
1115.43	471.461
1122.87	482.83
1130.31	504.854
1137.75	505.938
1145.2	528.812
1152.64	544.307
1160.08	551.462
1167.52	574.358
1174.97	606.18
1182.41	587.506
1189.85	597.735
1197.29	610.375
1204.74	651.288
1212.18	642.302
1219.62	682.313
1227.06	721.404
1234.51	738.089
1241.95	794.945
1249.39	810.881
1256.83	854.692
1264.28	936.12
1271.72	980.943
1279.16	1070.15
1286.6	1136.4
1294.05	1216.97
1301.49	1333.39
1308.93	1484.26
1316.37	1656.77
1323.82	1705.8
1331.26	1835.4
1338.7	1870.72
1346.14	1845.5
1353.59	1743.07
1361.03	1634.4
1368.47	1507.85
1375.91	1408.07
1383.36	1302.09
1390.8	1226.83
1398.24	1118.85
1405.68	1100.17
1413.13	1018.08
1420.57	991.268
1428.01	947.127
1435.45	926.216
1442.9	917.497
1450.34	897.467
1457.78	882.784
1465.22	885.38
1472.67	896.622
1480.11	891.005
1487.55	913.656
1494.99	916.88
1502.44	922.983
1509.88	904.091
1517.32	942.381
1524.76	965.682
1532.21	1019.85
1539.65	1083.69
1547.09	1165.33
1554.53	1304.29
1561.98	1382.07
1569.42	1518.98
1576.86	1636.9
1584.3	1679.71
1591.75	1733.64
1599.19	1710.92
1606.63	1574.79
1614.07	1364.17
1621.52	1169.3
1628.96	971.444
1636.4	834.154
1643.84	666.556
1651.29	577.071
1658.73	482.843
1666.17	417.15
1673.61	368.491
1681.06	331.57
1688.5	302.144
1695.94	287.279
1703.38	268.352
1710.83	248.039
1718.27	245.279
1725.71	238.507
1733.15	228.384
1740.6	223.399
1748.04	220.425
1755.48	216.257
1762.92	209.099
1770.37	211.844
1777.81	205.429
1785.25	209.213
1792.69	206.95
1800.14	199.162
1807.58	195.23
1815.02	201.537
1822.46	205.995
1829.91	199.654
1837.35	191.199
1844.79	202.902
1852.23	189.077
1859.68	188.71
1867.12	203.477
1874.56	191.989
1882	189.468
1889.45	196.499
1896.89	190.177
1904.33	192.545
1911.77	189.937
1919.22	188.545
1926.66	182.033
1934.1	189.354
1941.54	182.454
1948.99	187.791
1956.43	192.761
1963.87	187.511
1971.31	190.634
1978.76	189.944
1986.2	183.468
1993.64	190.307
2001.08	193.386
2008.53	178.345
2015.97	187.824
2023.41	182.391
2030.85	189.344
2038.3	178.5
2045.74	196.532
2053.18	180.419
2060.62	195.008
2068.06	187.726
2075.51	190.469
2082.95	184.111
2090.39	187.27
2097.83	183.285
2105.28	184.656
2112.72	191.007
2120.16	188.21
2127.6	184.784
2135.05	186.392
2142.49	194.154
2149.93	186.65
2157.37	186.801
2164.82	188.129
2172.26	181.121
2179.7	187.66
2187.14	190.73
2194.59	187.613
2202.03	192.099
2209.47	191.065
2216.91	187.869
2224.36	195.35
2231.8	192.948
2239.24	370.327
2246.68	194.954
2254.13	196.871
2261.57	194.096
2269.01	194.434
2276.45	197.793
2283.9	197.28
2291.34	206.231
2298.78	204.336
2306.22	202.298
2313.67	205.956
2321.11	216.627
2328.55	301.36
2335.99	207.746
2343.44	213.809
2350.88	208.706
2358.32	215.584
2365.76	215.998
2373.21	220.961
2380.65	218.033
2388.09	223.023
2395.53	227.044
2400	233.505