Folder: Graphs/Example Data/Raman/CNT - TIM/Raytheon/Microwave/Test 1 (part 2)

File: CNT-MW - T1 - 060 sec - bottom.txt
300	418.415
306.744	470.076
313.488	458.845
320.232	436.474
326.976	436.852
333.72	444.51
340.465	448.953
347.209	456.882
353.953	438.73
360.697	435.152
367.441	430.945
374.185	427.282
380.929	423.122
387.673	429.921
394.417	412.622
401.161	422.568
407.906	419.095
414.65	423.966
421.394	401.295
428.138	396.692
434.882	412.569
441.626	405.037
448.37	416.094
455.114	392.209
461.858	378.899
468.602	381.689
475.347	369.247
482.091	385.465
488.835	366.083
495.579	358.025
502.323	347.865
509.067	359.969
515.811	351.448
522.555	351.55
529.299	358.606
536.043	343.202
542.788	335.777
549.532	342.862
556.276	350.246
563.02	352.215
569.764	375.956
576.508	353.129
583.252	348.107
589.996	346.36
596.74	362.271
603.484	361.318
610.229	369.964
616.973	372.616
623.717	359.688
630.461	360.916
637.205	380.56
643.949	379.408
650.693	376.576
657.437	386.786
664.181	375.745
670.925	386.731
677.67	381.601
684.414	374.739
691.158	390.2
697.902	383.954
704.646	394.835
711.39	396.903
718.134	407.264
724.878	408.728
731.622	395.7
738.366	400.151
745.111	409.459
751.855	416.241
758.599	420.466
765.343	438.449
772.087	442.446
778.831	438.736
785.575	432.544
792.319	433.089
799.063	444.433
805.807	441.403
812.552	448.867
819.296	459.153
826.04	472.952
832.784	465.645
839.528	467.129
846.272	483.045
853.016	477.18
859.76	456.975
866.504	448.489
873.248	450.409
879.992	441.708
886.737	430.905
893.481	434.883
900.225	425.421
906.969	424.854
913.713	420.09
920.457	404.558
927.201	410.068
933.945	416.551
940.689	421
947.433	420.499
954.178	415.135
960.922	432.424
967.666	419.96
974.41	450.68
981.154	434.125
987.898	440.01
994.642	459.723
1001.39	479.307
1008.13	486.733
1014.87	503.558
1021.62	514.798
1028.36	539.321
1035.11	541.665
1041.85	551.52
1048.59	585.802
1055.34	587.86
1062.08	591.396
1068.83	624.514
1075.57	622.978
1082.32	648.319
1089.06	654.006
1095.8	674.815
1102.55	694.448
1109.29	706.684
1116.04	736.535
1122.78	745.354
1129.52	796.107
1136.27	820.353
1143.01	849.843
1149.76	877.464
1156.5	901.488
1163.24	940.536
1169.99	957.654
1176.73	982.976
1183.48	1025.87
1190.22	1040.44
1196.97	1068.39
1203.71	1096
1210.45	1102.71
1217.2	1151.12
1223.94	1192.77
1230.69	1241.38
1237.43	1291.79
1244.17	1333.89
1250.92	1416.33
1257.66	1445.87
1264.41	1565.57
1271.15	1626.94
1277.89	1718.47
1284.64	1820.03
1291.38	1924.64
1298.13	2062.43
1304.87	2180.9
1311.61	2348.94
1318.36	2480.68
1325.1	2596.51
1331.85	2650.63
1338.59	2701.77
1345.34	2653.87
1352.08	2601.97
1358.82	2498.45
1365.57	2361.1
1372.31	2298.56
1379.06	2156.55
1385.8	2016.76
1392.54	1939.2
1399.29	1844.65
1406.03	1774.03
1412.78	1690.96
1419.52	1643.96
1426.26	1600.08
1433.01	1537.19
1439.75	1565.28
1446.5	1535.03
1453.24	1503.52
1459.98	1470.11
1466.73	1480.97
1473.47	1472.43
1480.22	1453.32
1486.96	1455.84
1493.71	1445.87
1500.45	1469.43
1507.19	1473.53
1513.94	1504.76
1520.68	1494.18
1527.43	1562.12
1534.17	1587.95
1540.91	1654.66
1547.66	1754.32
1554.4	1922.02
1561.15	2047.1
1567.89	2212.27
1574.63	2376.84
1581.38	2540.32
1588.12	2674.86
1594.87	2744.38
1601.61	2653.74
1608.36	2438.29
1615.1	2162.57
1621.84	1835.17
1628.59	1555.91
1635.33	1303.64
1642.08	1122.91
1648.82	973.925
1655.56	845.179
1662.31	744.848
1669.05	652.488
1675.8	584.209
1682.54	527.44
1689.28	490.589
1696.03	458.575
1702.77	450.913
1709.52	428.158
1716.26	409.855
1723	389.558
1729.75	376.26
1736.49	374.578
1743.24	369.517
1749.98	363.817
1756.73	361.127
1763.47	347.683
1770.21	343.027
1776.96	345.118
1783.7	339.029
1790.45	349.74
1797.19	324.789
1803.93	342.664
1810.68	323.691
1817.42	327.953
1824.17	324.613
1830.91	324.685
1837.65	319.195
1844.4	326.46
1851.14	318.937
1857.89	324.727
1864.63	313.971
1871.375	321.568
1878.12	314.187
1884.86	315.101
1891.61	309.721
1898.35	309.562
1905.1	309.634
1911.84	311.59
1918.58	302.879
1925.33	313.014
1932.07	308.504
1938.82	296.162
1945.56	305.101
1952.3	307.629
1959.05	297.447
1965.79	304.087
1972.54	294.952
1979.28	302.209
1986.02	314.938
1992.77	310.357
1999.51	301.814
2006.26	309.896
2013	298.783
2019.75	296.111
2026.49	322.525
2033.23	303.094
2039.98	294.977
2046.72	306.721
2053.47	311.233
2060.21	292.9
2066.95	305.934
2073.7	304.342
2080.44	305.082
2087.19	304.944
2093.93	290.384
2100.67	296.441
2107.42	297.635
2114.16	292.52
2120.91	294.986
2127.65	294.103
2134.4	305.616
2141.14	303.672
2147.88	305.997
2154.63	317.901
2161.37	302.333
2168.12	306.924
2174.86	309.888
2181.6	308.136
2188.35	310.554
2195.09	295.466
2201.84	302.188
2208.58	316.552
2215.32	305.115
2222.07	309.529
2228.81	310.595
2235.56	294.576
2242.3	302.957
2249.04	305.805
2255.79	317.975
2262.53	319.595
2269.28	325.657
2276.02	330.677
2282.77	316.61
2289.51	321.565
2296.25	326.169
2300	329.474

File: CNT-MW - T1 - 060 sec - top.txt
300	445.902
306.744	473.447
313.488	480.286
320.232	471.305
326.976	445.06
333.72	472.526
340.465	443.007
347.209	447.43
353.953	427.783
360.697	454.598
367.441	443.662
374.185	441.523
380.929	427.905
387.673	435.282
394.417	423.453
401.161	420.148
407.906	425.152
414.65	425.361
421.394	416.795
428.138	435.256
434.882	432.595
441.626	415.144
448.37	418.324
455.114	406.69
461.858	403.914
468.602	395.267
475.347	390.524
482.091	393.024
488.835	365.006
495.579	369.095
502.323	346.331
509.067	372.048
515.811	336.911
522.555	360.495
529.299	355.076
536.043	361.048
542.788	362.246
549.532	363.81
556.276	359.444
563.02	364.069
569.764	365.597
576.508	373.204
583.252	386.826
589.996	363.889
596.74	375.425
603.484	380.355
610.229	383.125
616.973	382.056
623.717	367.501
630.461	384.226
637.205	387.987
643.949	379.502
650.693	387.831
657.437	400.26
664.181	398.925
670.925	406.849
677.67	384.733
684.414	418.652
691.158	400.983
697.902	401.072
704.646	411.878
711.39	416.581
718.134	406.327
724.878	414.362
731.622	423.8
738.366	425.095
745.111	456.314
751.855	417.363
758.599	432.529
765.343	438.864
772.087	446.488
778.831	458.359
785.575	449.191
792.319	462.004
799.063	463.689
805.807	473.299
812.552	476.864
819.296	482.176
826.04	487.81
832.784	486.146
839.528	494.435
846.272	516.844
853.016	512.436
859.76	477.959
866.504	482.228
873.248	477.52
879.992	470.478
886.737	453.63
893.481	457.324
900.225	456.419
906.969	441.285
913.713	447.048
920.457	440.326
927.201	453.034
933.945	449.089
940.689	455.548
947.433	456.581
954.178	454.443
960.922	460.371
967.666	467.886
974.41	472.435
981.154	482.016
987.898	480.744
994.642	513.949
1001.39	527.387
1008.13	535.244
1014.87	538.702
1021.62	584.217
1028.36	615.382
1035.11	604.208
1041.85	619.761
1048.59	647.937
1055.34	667.089
1062.08	669.187
1068.83	686.391
1075.57	713.089
1082.32	734.688
1089.06	755.053
1095.8	761.353
1102.55	793.07
1109.29	836.002
1116.04	852.379
1122.78	883.068
1129.52	899.631
1136.27	951.401
1143.01	991.723
1149.76	1017.28
1156.5	1041.61
1163.24	1076.39
1169.99	1094.37
1176.73	1133.47
1183.48	1141.94
1190.22	1170.18
1196.97	1214.61
1203.71	1210.32
1210.45	1248.66
1217.2	1283.25
1223.94	1342.41
1230.69	1388.34
1237.43	1458.5
1244.17	1521.21
1250.92	1572.27
1257.66	1659.69
1264.41	1785.81
1271.15	1832.35
1277.89	1934.55
1284.64	2072.98
1291.38	2200.68
1298.13	2355.87
1304.87	2527.8
1311.61	2690.5
1318.36	2865.38
1325.1	2975.71
1331.85	3118.97
1338.59	3161.45
1345.34	3156.3
1352.08	3102.97
1358.82	2987.42
1365.57	2855.2
1372.31	2703.26
1379.06	2578.71
1385.8	2407
1392.54	2287.63
1399.29	2172.99
1406.03	2054.52
1412.78	1994.93
1419.52	1884.21
1426.26	1865.12
1433.01	1800.65
1439.75	1788.46
1446.5	1770.78
1453.24	1740.11
1459.98	1769.43
1466.73	1710.29
1473.47	1724.8
1480.22	1716.56
1486.96	1725.24
1493.71	1733.41
1500.45	1725.32
1507.19	1759.02
1513.94	1771.57
1520.68	1824.88
1527.43	1848.08
1534.17	1901.62
1540.91	1983.96
1547.66	2108.49
1554.4	2230.02
1561.15	2424.28
1567.89	2564.35
1574.63	2726.95
1581.38	2962.67
1588.12	3071.63
1594.87	3116.31
1601.61	3042.93
1608.36	2811.28
1615.1	2500
1621.84	2163.91
1628.59	1812.49
1635.33	1581.88
1642.08	1343.65
1648.82	1159.65
1655.56	999.8
1662.31	866.836
1669.05	770.101
1675.8	655.991
1682.54	606.377
1689.28	553.716
1696.03	519.266
1702.77	502.689
1709.52	468.933
1716.26	454.942
1723	443.166
1729.75	412.874
1736.49	410.38
1743.24	398.948
1749.98	397.994
1756.73	387.45
1763.47	382.62
1770.21	377.094
1776.96	384.164
1783.7	362.776
1790.45	372.759
1797.19	360.593
1803.93	365.792
1810.68	368.272
1817.42	361.124
1824.17	358.04
1830.91	349.649
1837.65	349.048
1844.4	348.278
1851.14	363.247
1857.89	350.124
1864.63	342.279
1871.375	345.467
1878.12	346.502
1884.86	339.231
1891.61	338.65
1898.35	346.254
1905.1	352.411
1911.84	344.224
1918.58	349.28
1925.33	336.974
1932.07	326.507
1938.82	330.657
1945.56	342.531
1952.3	330.05
1959.05	342.654
1965.79	330.553
1972.54	329.022
1979.28	339.362
1986.02	343.31
1992.77	341.509
1999.51	334.886
2006.26	339.762
2013	335.302
2019.75	337.226
2026.49	348.105
2033.23	340.419
2039.98	343.237
2046.72	341.387
2053.47	345.412
2060.21	338.541
2066.95	342.081
2073.7	342.662
2080.44	342.87
2087.19	342.865
2093.93	333.719
2100.67	339.318
2107.42	338.794
2114.16	340.188
2120.91	348.167
2127.65	325.469
2134.4	349.58
2141.14	339.193
2147.88	341.314
2154.63	348.368
2161.37	356.741
2168.12	348.403
2174.86	352.491
2181.6	349.593
2188.35	343.943
2195.09	342.557
2201.84	355.453
2208.58	346.44
2215.32	360.375
2222.07	359.952
2228.81	352.717
2235.56	366.2
2242.3	351.753
2249.04	368.962
2255.79	355.467
2262.53	356.251
2269.28	357.795
2276.02	364.755
2282.77	371.868
2289.51	363.487
2296.25	375.212
2300	372.913

File: CNT-MW - T1 - 120 sec - bottom.txt
300	390.122
306.744	411.784
313.488	404.105
320.232	396.777
326.976	399.929
333.72	397.641
340.465	397.007
347.209	384.839
353.953	393.5
360.697	390.459
367.441	372.573
374.185	374.675
380.929	368.95
387.673	369.574
394.417	366.878
401.161	370.748
407.906	363.048
414.65	356.399
421.394	364.78
428.138	357.48
434.882	364.363
441.626	359.32
448.37	350.624
455.114	356.226
461.858	343.172
468.602	340.945
475.347	325.262
482.091	319.727
488.835	317.192
495.579	309.202
502.323	301.77
509.067	299.847
515.811	301.272
522.555	305.535
529.299	302.485
536.043	296.417
542.788	304.548
549.532	304.692
556.276	308.504
563.02	314.356
569.764	320.038
576.508	318.158
583.252	325.223
589.996	325.028
596.74	316.048
603.484	317.246
610.229	312.012
616.973	307.991
623.717	336.131
630.461	323.709
637.205	326.13
643.949	316.81
650.693	344.145
657.437	332.655
664.181	335.246
670.925	349.598
677.67	342.023
684.414	336.359
691.158	335.85
697.902	351.711
704.646	341.89
711.39	350.56
718.134	361.905
724.878	358.909
731.622	373.399
738.366	368.668
745.111	364.862
751.855	369.568
758.599	379.418
765.343	383.909
772.087	387.649
778.831	400.964
785.575	393.663
792.319	385.804
799.063	403.086
805.807	422.954
812.552	416.589
819.296	423.096
826.04	418.798
832.784	434.739
839.528	438.545
846.272	433.552
853.016	427.846
859.76	439.26
866.504	427.908
873.248	404.774
879.992	394.3
886.737	391.794
893.481	385.339
900.225	371.94
906.969	368.539
913.713	380.516
920.457	380.248
927.201	378.811
933.945	374.611
940.689	368.918
947.433	371.262
954.178	384.512
960.922	395.201
967.666	378.877
974.41	387.878
981.154	405.552
987.898	402.418
994.642	407.306
1001.39	432.477
1008.13	433.727
1014.87	454.878
1021.62	466.329
1028.36	476.043
1035.11	497.147
1041.85	506.108
1048.59	524.119
1055.34	543.149
1062.08	548.949
1068.83	560.304
1075.57	568.582
1082.32	573.089
1089.06	598.876
1095.8	604.1
1102.55	629.742
1109.29	645.199
1116.04	653.808
1122.78	676.045
1129.52	705.738
1136.27	710.036
1143.01	738.504
1149.76	773.38
1156.5	801.717
1163.24	805.093
1169.99	818.375
1176.73	870.251
1183.48	844.302
1190.22	872.945
1196.97	923.476
1203.71	930.604
1210.45	936.609
1217.2	989.028
1223.94	1004.74
1230.69	1060.41
1237.43	1120.72
1244.17	1089.86
1250.92	1207.28
1257.66	1256.98
1264.41	1330.99
1271.15	1406.63
1277.89	1502.35
1284.64	1603.6
1291.38	1699.51
1298.13	1794.43
1304.87	1927.19
1311.61	2049.2
1318.36	2205.94
1325.1	2305.88
1331.85	2399.31
1338.59	2423.5
1345.34	2423.39
1352.08	2274.84
1358.82	2244.35
1365.57	2107.81
1372.31	2008.83
1379.06	1872.25
1385.8	1767.2
1392.54	1705.59
1399.29	1599.47
1406.03	1533.5
1412.78	1475.7
1419.52	1432.9
1426.26	1396.37
1433.01	1353.54
1439.75	1329.12
1446.5	1312.37
1453.24	1298.11
1459.98	1274
1466.73	1313.23
1473.47	1312.66
1480.22	1263.41
1486.96	1276.55
1493.71	1317.19
1500.45	1325.46
1507.19	1325.27
1513.94	1359.48
1520.68	1355.69
1527.43	1408.23
1534.17	1466.83
1540.91	1516.7
1547.66	1595.05
1554.4	1751.96
1561.15	1848.51
1567.89	1975.77
1574.63	2116.84
1581.38	2244.29
1588.12	2304.76
1594.87	2324.32
1601.61	2266.51
1608.36	2081.74
1615.1	1833.93
1621.84	1619.36
1628.59	1308.18
1635.33	1128.46
1642.08	951.563
1648.82	807.307
1655.56	724.641
1662.31	622.423
1669.05	559.611
1675.8	493.092
1682.54	440.088
1689.28	420.098
1696.03	406.372
1702.77	374.277
1709.52	358.954
1716.26	339.904
1723	337.187
1729.75	328.689
1736.49	318.083
1743.24	312.794
1749.98	313.375
1756.73	311.092
1763.47	299.181
1770.21	297.346
1776.96	295.499
1783.7	291.407
1790.45	282.84
1797.19	293.106
1803.93	284.453
1810.68	280.925
1817.42	274.878
1824.17	295.721
1830.91	274.195
1837.65	278.55
1844.4	279.893
1851.14	267.841
1857.89	285.168
1864.63	274.351
1871.375	282.84
1878.12	280.286
1884.86	269.057
1891.61	270.252
1898.35	270.505
1905.1	256.286
1911.84	269.44
1918.58	268.964
1925.33	263.079
1932.07	257.794
1938.82	257.369
1945.56	262.722
1952.3	258.452
1959.05	257.527
1965.79	258.981
1972.54	259.779
1979.28	263.634
1986.02	251.357
1992.77	266.563
1999.51	265.735
2006.26	269.828
2013	270.208
2019.75	265.495
2026.49	271.132
2033.23	270.262
2039.98	259.866
2046.72	263.782
2053.47	258.984
2060.21	270.059
2066.95	262.931
2073.7	261.962
2080.44	260.023
2087.19	258.461
2093.93	258.314
2100.67	261.586
2107.42	262.738
2114.16	254.554
2120.91	252.985
2127.65	274.325
2134.4	258.275
2141.14	268.548
2147.88	270.32
2154.63	260.555
2161.37	267.761
2168.12	266.344
2174.86	267.237
2181.6	266.987
2188.35	272.968
2195.09	272.601
2201.84	270.801
2208.58	274.101
2215.32	271.161
2222.07	278.613
2228.81	265.434
2235.56	281.669
2242.3	272.52
2249.04	285.389
2255.79	276.207
2262.53	270.683
2269.28	285.515
2276.02	278.379
2282.77	277.838
2289.51	281.377
2296.25	287.416
2300	294.1

File: CNT-MW - T1 - 120 sec - top.txt
300	348.764
306.744	377.508
313.488	365.291
320.232	359.945
326.976	366.673
333.72	359.558
340.465	352.547
347.209	354.864
353.953	364.25
360.697	336.834
367.441	347.615
374.185	333.968
380.929	340.225
387.673	348.088
394.417	322.333
401.161	318.295
407.906	321.109
414.65	320.355
421.394	338.27
428.138	318.693
434.882	310.634
441.626	337.422
448.37	313.284
455.114	303.084
461.858	287.704
468.602	302.403
475.347	299.787
482.091	296.924
488.835	299.583
495.579	294.42
502.323	282.512
509.067	277.235
515.811	280.09
522.555	271.625
529.299	276.178
536.043	279.998
542.788	263.579
549.532	278.97
556.276	290.319
563.02	276.929
569.764	279.706
576.508	272.501
583.252	287.742
589.996	302.473
596.74	287.322
603.484	289.546
610.229	291.726
616.973	294.233
623.717	292.469
630.461	288.539
637.205	300.314
643.949	313
650.693	312.393
657.437	306.969
664.181	317.126
670.925	308.645
677.67	309.572
684.414	301.891
691.158	307.684
697.902	311.955
704.646	319.494
711.39	322.432
718.134	313.522
724.878	327.728
731.622	336.49
738.366	342.828
745.111	352.591
751.855	355.382
758.599	352.269
765.343	355.506
772.087	348.75
778.831	359.728
785.575	367.154
792.319	378.525
799.063	371.674
805.807	384.909
812.552	393.207
819.296	391.313
826.04	393.798
832.784	408.693
839.528	412.798
846.272	403.375
853.016	397.487
859.76	387.513
866.504	385.116
873.248	381.813
879.992	364.021
886.737	379.019
893.481	351.244
900.225	362.405
906.969	355.128
913.713	349.962
920.457	350.016
927.201	354.062
933.945	349.196
940.689	358.417
947.433	357.999
954.178	359.489
960.922	363.269
967.666	347.922
974.41	363.28
981.154	375.898
987.898	366.991
994.642	385.353
1001.39	401.801
1008.13	404.767
1014.87	423.875
1021.62	444.528
1028.36	468.812
1035.11	475.323
1041.85	496.761
1048.59	483.167
1055.34	502.867
1062.08	516.669
1068.83	530.119
1075.57	552.539
1082.32	564.389
1089.06	583.867
1095.8	601.953
1102.55	624.339
1109.29	635.156
1116.04	650.705
1122.78	663.271
1129.52	700.514
1136.27	689.633
1143.01	738.841
1149.76	756.741
1156.5	787.849
1163.24	786.778
1169.99	811.133
1176.73	836.75
1183.48	865.183
1190.22	858.082
1196.97	900.26
1203.71	911.719
1210.45	950.339
1217.2	973.59
1223.94	996.822
1230.69	1044.14
1237.43	1082.18
1244.17	1156.95
1250.92	1177.81
1257.66	1254.24
1264.41	1307.09
1271.15	1391.67
1277.89	1480.8
1284.64	1599.05
1291.38	1674.1
1298.13	1797.8
1304.87	1952.01
1311.61	2087.49
1318.36	2259.32
1325.1	2394.77
1331.85	2501.26
1338.59	2545.7
1345.34	2503.72
1352.08	2462.64
1358.82	2344.12
1365.57	2226.5
1372.31	2087.56
1379.06	1965.42
1385.8	1835.83
1392.54	1739.87
1399.29	1637.08
1406.03	1573.85
1412.78	1514.88
1419.52	1437.6
1426.26	1408.86
1433.01	1384.33
1439.75	1380.08
1446.5	1345.26
1453.24	1322.47
1459.98	1339.49
1466.73	1321.8
1473.47	1319.43
1480.22	1296.29
1486.96	1300.52
1493.71	1323.69
1500.45	1323.11
1507.19	1337.84
1513.94	1359.57
1520.68	1386.99
1527.43	1428.69
1534.17	1475.79
1540.91	1531.41
1547.66	1639.73
1554.4	1780.75
1561.15	1911.96
1567.89	2060.83
1574.63	2200.53
1581.38	2321.97
1588.12	2381.28
1594.87	2410
1601.61	2315.78
1608.36	2162.59
1615.1	1950.08
1621.84	1657.82
1628.59	1423.86
1635.33	1187
1642.08	1020.55
1648.82	875.156
1655.56	741.796
1662.31	655.256
1669.05	560.317
1675.8	503.369
1682.54	451.234
1689.28	414.887
1696.03	379.191
1702.77	363.093
1709.52	339.272
1716.26	328.219
1723	328.261
1729.75	308.891
1736.49	303.893
1743.24	294.186
1749.98	290.489
1756.73	282.403
1763.47	289.876
1770.21	269.914
1776.96	277.761
1783.7	270.992
1790.45	279.024
1797.19	273.062
1803.93	267.732
1810.68	276.137
1817.42	267.988
1824.17	277.357
1830.91	266.743
1837.65	259.942
1844.4	259.551
1851.14	266.073
1857.89	265.104
1864.63	258.24
1871.375	259.666
1878.12	257.186
1884.86	268.522
1891.61	265.57
1898.35	253.665
1905.1	256.872
1911.84	252.404
1918.58	255.743
1925.33	255.271
1932.07	259.853
1938.82	257.108
1945.56	249.814
1952.3	252.22
1959.05	252.916
1965.79	243.085
1972.54	262.798
1979.28	251.156
1986.02	259.208
1992.77	258.108
1999.51	262.829
2006.26	260.495
2013	253.202
2019.75	255.101
2026.49	253.163
2033.23	252.984
2039.98	256.497
2046.72	257.603
2053.47	255.744
2060.21	252.294
2066.95	259.809
2073.7	252.503
2080.44	255.755
2087.19	251.94
2093.93	244.258
2100.67	254.976
2107.42	248.375
2114.16	252.758
2120.91	248
2127.65	263.641
2134.4	252.351
2141.14	256.04
2147.88	260.794
2154.63	255.728
2161.37	271.758
2168.12	269.931
2174.86	262.903
2181.6	260.017
2188.35	274.85
2195.09	257.601
2201.84	250.43
2208.58	271.889
2215.32	262.41
2222.07	261.07
2228.81	262.256
2235.56	268.098
2242.3	265.93
2249.04	269.456
2255.79	270.847
2262.53	264.74
2269.28	284.641
2276.02	282.207
2282.77	269.222
2289.51	282.967
2296.25	280.208
2300	288.174