Folder: Graphs/Example Data/Raman/CNT - TIM/Raytheon/Microwave/Test 1

Note: Example Data/Raman/CNT - TIM/Raytheon/Microwave/Test 1/CNT-MW-T1 Experimental Conditions.txt
Microwave Test: 1

Information: CNT
Batch Number:	23a
Substrate Type:	Al foil
Substrate Thickness:	10 : micons
Catalyst Layup: Ni/Ti/Al/Fe : 1000/300/100/30

Growth Method: LPCVD
Grown By: Anu
Growth Temperature: 717 : C : Thermocouple
Growth Temperature: 650 : C : IR

Information: Microwave
Microwave Power Setting: 500 : W
Microwave Center Frequency: 6.42 : GHz
Microwave Sweep Range: 1.15 : GHz
Micwowave Sweep Time: 0.1 : sec

Sample Information:
Sample ID: 	Size:	Power_min:	Power Max:	Reflected Min:	Reflected Max:	Temperature Initial: 	Temperature Final
MW-T1-S0 :	cm :	W	:	W	:	W	:	W	:	C	:		C
MW-T1-S1 : 	1  :	476	:	527	:	38	:	97	:	107	:		136
MW-T1-S2 : 	1  :	494	:	519	:	43	:	91	:	107	:		146
MW-T1-S1 : 	1  :	486	:	531	:	39	:	106	:	106	:		179

Note: README.md
# Graphs
A macOS app that manages the organization of data files and graphs them.

Licensed under the MIT licensing terms: https://opensource.org/licenses/MIT

Hildreth wrote the precursor to Graphs, then called GraphBase, during his Ph.D. to help manage the data he was collecting as part of his research on Metal-assisted Chemical Etching of Silicon.  He was becoming overwhelmed by the hundreds of data files he was collecting every week and was inspired by the Papers and iTunes applications on OS X (now macOS) to create an application that managed data.  GraphBase provided an easy template to create a parser, a simple UI to organize data into hiarchical folders, and leveraged the DataGraph framework (http://www.visualdatatools.com/DataGraph/Framework/) for graphing.  DataGraph (http://www.visualdatatools.com/DataGraph/) is an amazing 2D graphing application and you will need to purchase a DataGraph license from Visual Data Tools in order to use Graphs.

Graphs is a rewrite of GraphBase in Swift written by Connor and then re-written again by Hildreth that has been open sourced for use by all.  Please not that you will need a DataGraph license to create the graph templates used by the DataGraph framework underlying Graphs.  Hildreth plans to continue evolving this application.  The next plan improvements are: multithreading for import and parsing using the new Results type in Swift; and begin switching over to SwiftUI for the UI.  Long term, we hope to add support for data analysis and extraction.

# Overview
Graphs is a data management tool that allows you to store your raw data files in a text formate (CSV, tab delimited, etc.) and then have those files parsed and graphed when selected.  Graphs uses the DataGraph fromework 

To use Graphs, first you create an example graph, what we call a Graph Template, in DataGraph.  Format the graph the way you want it to look and make sure that the Data Columns are in the same order as the columns in your data.  Next, you  add your "Graph Template" to Graphs using either the Graph Template Inspector on the right side of Graphs using using the "+" sign on the bottom left of the application.  You can also drag-and-drop the file onto a folder in the Source List.  Once you add a Graph Template, you can assign it to be the default Graph Template for a folder and any sub-folders using the Folder Inspector.

The second step is to make a Paser using the Parser Inspector.  It might be helpful to have an example file already in Graphs (see Step 3) because you can use the Text Inspector to see what lines your Experimental Details, Header, and Data start at.  Add a Parse Template using the + sign in the Parse Inspector's table and give the Parse Template a name.  If your data has experimental details at the top, then select the checkbox and set the starting and ending lines for this information.  If your data has a Header, select the Header checkbox, give it starting and ending line numbers, and then select the type of s

File: CNT-MW - T1 - 0 sec - bottom.txt
300	328.898
306.744	355.421
313.488	350.976
320.232	349.732
326.976	324.315
333.72	329.998
340.465	339.025
347.209	343.058
353.953	348.852
360.697	333.291
367.441	329.923
374.185	323.848
380.929	314.464
387.673	318.708
394.417	326.856
401.161	320.326
407.906	303.418
414.65	316.403
421.394	320.732
428.138	308.502
434.882	297.935
441.626	313.451
448.37	305.604
455.114	294.858
461.858	280.43
468.602	293.567
475.347	283.837
482.091	282.564
488.835	253.167
495.579	265.874
502.323	260.737
509.067	251.813
515.811	259.882
522.555	258.26
529.299	254.644
536.043	262.561
542.788	261.193
549.532	266.366
556.276	261.576
563.02	263.75
569.764	264.05
576.508	270.643
583.252	274.269
589.996	267.723
596.74	269.604
603.484	277.901
610.229	278.661
616.973	270.139
623.717	282.616
630.461	280.716
637.205	291.604
643.949	288.842
650.693	295.617
657.437	297.357
664.181	291.487
670.925	292.509
677.67	295.606
684.414	288.457
691.158	293.501
697.902	304.316
704.646	287.872
711.39	303.225
718.134	308.736
724.878	310.779
731.622	311.309
738.366	319.758
745.111	321.743
751.855	335.044
758.599	338.096
765.343	340.182
772.087	332.924
778.831	336.144
785.575	346.293
792.319	374.953
799.063	357.103
805.807	375.632
812.552	370.27
819.296	371.063
826.04	374.548
832.784	382.663
839.528	370.386
846.272	371.198
853.016	386.64
859.76	378.395
866.504	365.116
873.248	357.613
879.992	346.342
886.737	337.729
893.481	347.104
900.225	336.765
906.969	328.335
913.713	323.311
920.457	322.854
927.201	316.594
933.945	319.963
940.689	310.884
947.433	331.888
954.178	325.331
960.922	324.176
967.666	335.397
974.41	340.085
981.154	329.71
987.898	363.231
994.642	366.321
1001.39	377.806
1008.13	383.625
1014.87	384.866
1021.62	406.436
1028.36	420.533
1035.11	439.335
1041.85	438.131
1048.59	456.541
1055.34	456.135
1062.08	486.746
1068.83	486.01
1075.57	500.709
1082.32	525.275
1089.06	536.848
1095.8	544.97
1102.55	568.796
1109.29	579.876
1116.04	606.516
1122.78	615.985
1129.52	654.127
1136.27	693.294
1143.01	745.048
1149.76	765.425
1156.5	777.219
1163.24	788.887
1169.99	823.332
1176.73	835.611
1183.48	850.813
1190.22	862.723
1196.97	886.674
1203.71	908.531
1210.45	942.598
1217.2	962.548
1223.94	987.626
1230.69	1038.28
1237.43	1085.28
1244.17	1126.6
1250.92	1194.07
1257.66	1240.37
1264.41	1332.4
1271.15	1442.26
1277.89	1475.87
1284.64	1600.43
1291.38	1700.95
1298.13	1837.63
1304.87	1936.83
1311.61	2075.92
1318.36	2225.52
1325.1	2291.42
1331.85	2380.81
1338.59	2443.61
1345.34	2396.89
1352.08	2335.09
1358.82	2287.52
1365.57	2161.91
1372.31	2022.55
1379.06	1956.93
1385.8	1852.29
1392.54	1716.24
1399.29	1620.82
1406.03	1541.71
1412.78	1470.98
1419.52	1434.62
1426.26	1381.69
1433.01	1327.41
1439.75	1340.32
1446.5	1303.24
1453.24	1286.09
1459.98	1242.54
1466.73	1262.37
1473.47	1241.47
1480.22	1255.45
1486.96	1269.93
1493.71	1275.04
1500.45	1258.11
1507.19	1256.15
1513.94	1260.6
1520.68	1260.62
1527.43	1319.74
1534.17	1359.53
1540.91	1415
1547.66	1490.43
1554.4	1601.3
1561.15	1718.31
1567.89	1857.83
1574.63	2042.41
1581.38	2220.94
1588.12	2339.05
1594.87	2425.26
1601.61	2442.47
1608.36	2270.3
1615.1	2027.87
1621.84	1670.07
1628.59	1386.2
1635.33	1180.82
1642.08	1008.06
1648.82	885.18
1655.56	729.37
1662.31	613.556
1669.05	548.803
1675.8	477.381
1682.54	429.466
1689.28	380.696
1696.03	349.209
1702.77	324.869
1709.52	319.288
1716.26	294.762
1723	283.091
1729.75	271.528
1736.49	268.856
1743.24	264.261
1749.98	252.64
1756.73	247.751
1763.47	247.116
1770.21	247.14
1776.96	236.691
1783.7	239.458
1790.45	228.639
1797.19	227.65
1803.93	236.893
1810.68	227.921
1817.42	221.9
1824.17	221.039
1830.91	218.371
1837.65	222.829
1844.4	220.528
1851.14	231.51
1857.89	227.496
1864.63	218.643
1871.375	225.476
1878.12	220.587
1884.86	217.131
1891.61	213.316
1898.35	223.936
1905.1	214.287
1911.84	221.978
1918.58	213.254
1925.33	210.969
1932.07	218.841
1938.82	217.421
1945.56	213.536
1952.3	207.763
1959.05	218.154
1965.79	216.736
1972.54	222.274
1979.28	219.537
1986.02	222.57
1992.77	218.468
1999.51	222.655
2006.26	214.419
2013	223.504
2019.75	212.484
2026.49	225.394
2033.23	213.696
2039.98	212.02
2046.72	226.759
2053.47	210.424
2060.21	209.479
2066.95	218.958
2073.7	215.968
2080.44	220.664
2087.19	211.864
2093.93	216.833
2100.67	212.159
2107.42	218.807
2114.16	218.157
2120.91	215.9
2127.65	214.316
2134.4	209.108
2141.14	209.878
2147.88	215.4
2154.63	215.068
2161.37	216.81
2168.12	225.538
2174.86	216.047
2181.6	225.166
2188.35	220.02
2195.09	220.799
2201.84	226.408
2208.58	221.02
2215.32	228.239
2222.07	220.654
2228.81	223.341
2235.56	225.163
2242.3	233.692
2249.04	237.436
2255.79	231.087
2262.53	231.266
2269.28	241.41
2276.02	231.361
2282.77	238.024
2289.51	234.005
2296.25	232.235
2300	250.316

File: CNT-MW - T1 - 0 sec.txt
300	385.313
306.744	419.039
313.488	412.416
320.232	395.258
326.976	395.061
333.72	409.58
340.465	403.54
347.209	397.627
353.953	390.784
360.697	396.361
367.441	408.934
374.185	385.234
380.929	381.011
387.673	379.523
394.417	382.203
401.161	365.833
407.906	377.624
414.65	368.924
421.394	370.383
428.138	383.038
434.882	370.276
441.626	364.257
448.37	373.12
455.114	372.842
461.858	363.327
468.602	339.952
475.347	329.626
482.091	346.832
488.835	330.801
495.579	317.775
502.323	320.914
509.067	303.534
515.811	321.76
522.555	308
529.299	309.422
536.043	322.34
542.788	308.207
549.532	316.785
556.276	318.223
563.02	323.608
569.764	325.847
576.508	327.735
583.252	320.58
589.996	350.306
596.74	310.95
603.484	321.753
610.229	328.584
616.973	341.848
623.717	329.973
630.461	342.498
637.205	332.579
643.949	347.469
650.693	352.493
657.437	346.592
664.181	350.265
670.925	352.16
677.67	343.744
684.414	352.913
691.158	362.132
697.902	348.454
704.646	362.64
711.39	356.802
718.134	347.517
724.878	361.558
731.622	380.12
738.366	369.605
745.111	390.467
751.855	384.009
758.599	395.419
765.343	403.54
772.087	403.219
778.831	406.225
785.575	409.763
792.319	412.66
799.063	407.564
805.807	424.066
812.552	438.355
819.296	430.881
826.04	443.119
832.784	437.902
839.528	439.626
846.272	448.547
853.016	443.925
859.76	454.088
866.504	418.417
873.248	423.131
879.992	404.907
886.737	406.87
893.481	401.724
900.225	396.372
906.969	386.851
913.713	391.176
920.457	391.143
927.201	390.871
933.945	397.066
940.689	382.373
947.433	395.159
954.178	392.775
960.922	402.907
967.666	425.146
974.41	422.454
981.154	411.035
987.898	448.393
994.642	446.802
1001.39	469.256
1008.13	464.335
1014.87	474.629
1021.62	511.545
1028.36	532.929
1035.11	552.756
1041.85	566.042
1048.59	581.828
1055.34	585.166
1062.08	612.151
1068.83	623.272
1075.57	631.7
1082.32	654.6
1089.06	686.938
1095.8	716.878
1102.55	747.345
1109.29	754.191
1116.04	777.314
1122.78	799.436
1129.52	867.222
1136.27	894.699
1143.01	929.209
1149.76	984.09
1156.5	1013.32
1163.24	1071.16
1169.99	1069.9
1176.73	1098.74
1183.48	1133.77
1190.22	1154.16
1196.97	1179.09
1203.71	1207.7
1210.45	1245.86
1217.2	1291.78
1223.94	1345.68
1230.69	1420.98
1237.43	1453.9
1244.17	1566.04
1250.92	1619.67
1257.66	1723.32
1264.41	1780.59
1271.15	1930.37
1277.89	2072.61
1284.64	2206.1
1291.38	2331.82
1298.13	2533.72
1304.87	2733.15
1311.61	2911.85
1318.36	3126.57
1325.1	3251.67
1331.85	3379.24
1338.59	3433.4
1345.34	3431.96
1352.08	3348.44
1358.82	3236.18
1365.57	3034.94
1372.31	2905.03
1379.06	2713.1
1385.8	2539.11
1392.54	2343.39
1399.29	2283.31
1406.03	2121.05
1412.78	2054.09
1419.52	1972.33
1426.26	1895.54
1433.01	1816.86
1439.75	1788.23
1446.5	1765.18
1453.24	1763.9
1459.98	1746.4
1466.73	1729.43
1473.47	1735.75
1480.22	1734.34
1486.96	1708.39
1493.71	1736.87
1500.45	1735.07
1507.19	1754.68
1513.94	1746.5
1520.68	1779.5
1527.43	1802.74
1534.17	1871.11
1540.91	1949.4
1547.66	2088.8
1554.4	2194.96
1561.15	2343.93
1567.89	2542.95
1574.63	2822.74
1581.38	3061.63
1588.12	3286.6
1594.87	3412.17
1601.61	3394.32
1608.36	3191.94
1615.1	2867.64
1621.84	2482.75
1628.59	2008.31
1635.33	1677.92
1642.08	1396.49
1648.82	1178.78
1655.56	1032.2
1662.31	877.544
1669.05	732.356
1675.8	636.029
1682.54	555.141
1689.28	500.476
1696.03	468.253
1702.77	432.604
1709.52	415.331
1716.26	392.29
1723	381.023
1729.75	362.597
1736.49	345.295
1743.24	336.229
1749.98	322.845
1756.73	325.11
1763.47	318.596
1770.21	317.019
1776.96	301.88
1783.7	307.922
1790.45	305.017
1797.19	282.389
1803.93	297.142
1810.68	301.382
1817.42	309.272
1824.17	291.166
1830.91	290.623
1837.65	292.198
1844.4	285.159
1851.14	293.008
1857.89	292.089
1864.63	295.765
1871.375	297.2
1878.12	291.899
1884.86	279.413
1891.61	282.648
1898.35	276.135
1905.1	280.944
1911.84	275.656
1918.58	273.735
1925.33	282.862
1932.07	275.736
1938.82	273.076
1945.56	273.173
1952.3	271.345
1959.05	271.688
1965.79	277.412
1972.54	282.16
1979.28	273.053
1986.02	275.666
1992.77	283.695
1999.51	278.432
2006.26	290.769
2013	289.3
2019.75	279.695
2026.49	284.748
2033.23	272.063
2039.98	289.454
2046.72	284.776
2053.47	272.955
2060.21	283.74
2066.95	280.895
2073.7	287.477
2080.44	276.893
2087.19	278.128
2093.93	270.057
2100.67	283.672
2107.42	278.03
2114.16	285.133
2120.91	285.22
2127.65	265.76
2134.4	280.486
2141.14	273.25
2147.88	282.784
2154.63	279.546
2161.37	288.846
2168.12	284.847
2174.86	292.551
2181.6	276.628
2188.35	284.581
2195.09	292.948
2201.84	284.11
2208.58	286.407
2215.32	286.089
2222.07	298.293
2228.81	305.037
2235.56	305.103
2242.3	294.172
2249.04	289.15
2255.79	294.553
2262.53	303.601
2269.28	307.114
2276.02	302.22
2282.77	302.26
2289.51	309.812
2296.25	306.753
2300	318.443

File: CNT-MW - T1 - 030 sec - bottom.txt
300	385.333
306.744	391.177
313.488	376.979
320.232	392.629
326.976	389.607
333.72	381.505
340.465	380.044
347.209	375.615
353.953	392.325
360.697	378.972
367.441	364.547
374.185	370.994
380.929	362.962
387.673	368.528
394.417	361.216
401.161	362.522
407.906	349.548
414.65	353.991
421.394	362.5
428.138	346.034
434.882	348.516
441.626	336.832
448.37	350.907
455.114	322.406
461.858	336.016
468.602	324.884
475.347	323.937
482.091	302.151
488.835	312.878
495.579	318.087
502.323	298.939
509.067	304.42
515.811	295.913
522.555	295.215
529.299	298.448
536.043	306.694
542.788	308.789
549.532	305.177
556.276	291.654
563.02	294.429
569.764	307.394
576.508	305.083
583.252	316.978
589.996	302.736
596.74	299.139
603.484	315.468
610.229	315.417
616.973	312.604
623.717	310.484
630.461	328.052
637.205	324.852
643.949	323.575
650.693	328.274
657.437	330.457
664.181	321.401
670.925	327.257
677.67	331.281
684.414	332.022
691.158	337.368
697.902	342.776
704.646	334.329
711.39	335.097
718.134	353.632
724.878	353.609
731.622	356.851
738.366	356.779
745.111	367.048
751.855	366.252
758.599	356.43
765.343	374.716
772.087	366.531
778.831	387.105
785.575	379.078
792.319	396.874
799.063	386.933
805.807	404.865
812.552	386.469
819.296	408.347
826.04	420.238
832.784	419.971
839.528	418.115
846.272	417.318
853.016	408.528
859.76	403.427
866.504	399.867
873.248	391.294
879.992	396.264
886.737	389.465
893.481	372.265
900.225	364.486
906.969	357.052
913.713	355.061
920.457	349.655
927.201	352.628
933.945	352.724
940.689	364.665
947.433	362.401
954.178	353.24
960.922	371.612
967.666	358.835
974.41	379.187
981.154	381.267
987.898	387.296
994.642	398.103
1001.39	415.265
1008.13	406.818
1014.87	432.818
1021.62	434.43
1028.36	454.212
1035.11	471
1041.85	488.694
1048.59	494.223
1055.34	501.98
1062.08	511.331
1068.83	515.264
1075.57	546.628
1082.32	546.782
1089.06	564.706
1095.8	572.029
1102.55	588.614
1109.29	600.695
1116.04	620.181
1122.78	638.75
1129.52	664.227
1136.27	705.495
1143.01	705.541
1149.76	742.993
1156.5	769.809
1163.24	774.198
1169.99	787.852
1176.73	810.673
1183.48	808.437
1190.22	822.555
1196.97	875.344
1203.71	884.506
1210.45	927.972
1217.2	943.399
1223.94	981.461
1230.69	1022.24
1237.43	1054.07
1244.17	1111.65
1250.92	1139.52
1257.66	1207.54
1264.41	1268.88
1271.15	1349.39
1277.89	1430.91
1284.64	1494.07
1291.38	1570.59
1298.13	1689.78
1304.87	1795.1
1311.61	1908.15
1318.36	2025.25
1325.1	2099.96
1331.85	2159.44
1338.59	2138.15
1345.34	2134.43
1352.08	2145.58
1358.82	2045.24
1365.57	1953.65
1372.31	1850.23
1379.06	1747.34
1385.8	1698.82
1392.54	1595.89
1399.29	1511.07
1406.03	1461.96
1412.78	1411.52
1419.52	1356.42
1426.26	1308.27
1433.01	1297.37
1439.75	1267.03
1446.5	1234.47
1453.24	1224.57
1459.98	1268.19
1466.73	1223.09
1473.47	1244.09
1480.22	1239.95
1486.96	1223.29
1493.71	1228.6
1500.45	1232.51
1507.19	1244.47
1513.94	1240.93
1520.68	1248.24
1527.43	1306.4
1534.17	1339.43
1540.91	1409.13
1547.66	1478.24
1554.4	1614.58
1561.15	1701.92
1567.89	1848.23
1574.63	1984.75
1581.38	2088.3
1588.12	2187.87
1594.87	2202.51
1601.61	2121.84
1608.36	1962.56
1615.1	1736.7
1621.84	1471.76
1628.59	1249.5
1635.33	1051.12
1642.08	930.42
1648.82	805.021
1655.56	690.349
1662.31	598.093
1669.05	538.425
1675.8	472.542
1682.54	430.2
1689.28	396.33
1696.03	388.199
1702.77	376.796
1709.52	353.079
1716.26	347.671
1723	332.193
1729.75	311.415
1736.49	314.895
1743.24	304.809
1749.98	307.377
1756.73	299.446
1763.47	296.739
1770.21	299.522
1776.96	293.121
1783.7	281.03
1790.45	288.85
1797.19	279.429
1803.93	274.914
1810.68	280.918
1817.42	273.525
1824.17	284.202
1830.91	270.832
1837.65	271.696
1844.4	268.827
1851.14	286.094
1857.89	276.266
1864.63	260.862
1871.375	267.547
1878.12	261.143
1884.86	274.805
1891.61	269.139
1898.35	261.686
1905.1	268.171
1911.84	262.005
1918.58	279.271
1925.33	261.055
1932.07	251.607
1938.82	263.581
1945.56	267.288
1952.3	259.899
1959.05	270.684
1965.79	257.794
1972.54	258.759
1979.28	255.204
1986.02	252.765
1992.77	266.17
1999.51	269.242
2006.26	264.995
2013	263.053
2019.75	270.211
2026.49	261.693
2033.23	270.314
2039.98	256.707
2046.72	260.856
2053.47	264.489
2060.21	253.496
2066.95	253.542
2073.7	263.161
2080.44	267.215
2087.19	248.744
2093.93	259.834
2100.67	264.373
2107.42	253.16
2114.16	258.992
2120.91	262.504
2127.65	262.07
2134.4	260.729
2141.14	257.409
2147.88	260.225
2154.63	270.372
2161.37	251.082
2168.12	259.496
2174.86	262.386
2181.6	264.194
2188.35	273.318
2195.09	259.034
2201.84	266.911
2208.58	264.568
2215.32	271.708
2222.07	261.49
2228.81	265.531
2235.56	268.928
2242.3	269.567
2249.04	266.972
2255.79	271.074
2262.53	274.168
2269.28	267.698
2276.02	272.871
2282.77	273.512
2289.51	288.6
2296.25	291.271
2300	279.96

File: CNT-MW - T1 - 030 sec - top.txt
300	346.274
306.744	369.573
313.488	366.786
320.232	355.781
326.976	368.238
333.72	344.254
340.465	353.945
347.209	356.061
353.953	341.175
360.697	344.028
367.441	343.366
374.185	337.688
380.929	338.989
387.673	327.861
394.417	330.136
401.161	330.956
407.906	321.964
414.65	323.221
421.394	326.218
428.138	325.149
434.882	314.949
441.626	320.993
448.37	310.791
455.114	300.55
461.858	306.437
468.602	294.87
475.347	298.753
482.091	294.744
488.835	269.167
495.579	281.303
502.323	268.725
509.067	274.887
515.811	280.077
522.555	262.705
529.299	267.029
536.043	278.199
542.788	265.644
549.532	279.004
556.276	265.069
563.02	278.358
569.764	269.441
576.508	268.19
583.252	287.463
589.996	282.722
596.74	277.879
603.484	286.517
610.229	283.307
616.973	285.397
623.717	292.645
630.461	301.36
637.205	291.878
643.949	305.408
650.693	298.688
657.437	305.18
664.181	301.578
670.925	311.596
677.67	302.756
684.414	312.381
691.158	301.317
697.902	307.276
704.646	302.835
711.39	316.661
718.134	335.096
724.878	334.67
731.622	328.949
738.366	337.188
745.111	337.874
751.855	352.119
758.599	354.835
765.343	356.324
772.087	363.329
778.831	363.12
785.575	354.663
792.319	364.19
799.063	366.865
805.807	369.575
812.552	375.383
819.296	381.364
826.04	393
832.784	377.683
839.528	380.638
846.272	387.339
853.016	393.509
859.76	389.46
866.504	376.594
873.248	355.344
879.992	355.122
886.737	349.06
893.481	343.26
900.225	342.699
906.969	337.55
913.713	340.03
920.457	345.727
927.201	324.186
933.945	326.615
940.689	332.824
947.433	337.9
954.178	327.751
960.922	339.012
967.666	336.984
974.41	350.905
981.154	349.387
987.898	378.308
994.642	371.606
1001.39	397.747
1008.13	393.813
1014.87	405.317
1021.62	415.176
1028.36	434.976
1035.11	439.457
1041.85	472.186
1048.59	473.105
1055.34	478.27
1062.08	483.781
1068.83	485.326
1075.57	508.069
1082.32	524.289
1089.06	528.329
1095.8	535.032
1102.55	554.207
1109.29	573.971
1116.04	591.024
1122.78	579.287
1129.52	613.73
1136.27	628.672
1143.01	650.643
1149.76	666.278
1156.5	703.318
1163.24	711.619
1169.99	732.714
1176.73	748.23
1183.48	743.157
1190.22	777.574
1196.97	784.624
1203.71	804.016
1210.45	819.574
1217.2	866.689
1223.94	889.19
1230.69	919.64
1237.43	959.774
1244.17	995.05
1250.92	1053.66
1257.66	1107.75
1264.41	1159.16
1271.15	1224.84
1277.89	1290.14
1284.64	1385.91
1291.38	1466.67
1298.13	1570.6
1304.87	1669.83
1311.61	1800.62
1318.36	1927.01
1325.1	2007.55
1331.85	2120.99
1338.59	2159.12
1345.34	2139.45
1352.08	2046.77
1358.82	1991.3
1365.57	1917.34
1372.31	1815.54
1379.06	1700.49
1385.8	1596.14
1392.54	1523.73
1399.29	1445.25
1406.03	1340.89
1412.78	1320.78
1419.52	1266.02
1426.26	1248.22
1433.01	1198.36
1439.75	1177.75
1446.5	1179.57
1453.24	1181.34
1459.98	1164.23
1466.73	1134.79
1473.47	1148.41
1480.22	1162.07
1486.96	1146.46
1493.71	1152.32
1500.45	1175.56
1507.19	1156.48
1513.94	1193.39
1520.68	1185.85
1527.43	1269.96
1534.17	1276.73
1540.91	1367.25
1547.66	1430.84
1554.4	1568.74
1561.15	1655.49
1567.89	1756.72
1574.63	1913.69
1581.38	1999.89
1588.12	2041.34
1594.87	2039.08
1601.61	1970.84
1608.36	1811.37
1615.1	1630.86
1621.84	1399.07
1628.59	1200.12
1635.33	1003.85
1642.08	863.091
1648.82	757.218
1655.56	637.403
1662.31	553.341
1669.05	494.831
1675.8	439.237
1682.54	392.839
1689.28	368.465
1696.03	337.417
1702.77	319.883
1709.52	305.968
1716.26	291.159
1723	280.049
1729.75	273.968
1736.49	266.32
1743.24	263.355
1749.98	261.079
1756.73	257.202
1763.47	239.915
1770.21	255.532
1776.96	242.058
1783.7	251.693
1790.45	247.739
1797.19	230.09
1803.93	232.742
1810.68	238.93
1817.42	233.145
1824.17	231.676
1830.91	228.182
1837.65	225.858
1844.4	224.848
1851.14	228.607
1857.89	230.234
1864.63	219.068
1871.375	226.556
1878.12	220.611
1884.86	218.169
1891.61	231.749
1898.35	225.06
1905.1	216.427
1911.84	218.932
1918.58	216.791
1925.33	215.676
1932.07	213.42
1938.82	217.839
1945.56	208.732
1952.3	221.37
1959.05	211.665
1965.79	214.425
1972.54	218.448
1979.28	225.328
1986.02	225.327
1992.77	216.85
1999.51	223.133
2006.26	219.69
2013	228.849
2019.75	225.566
2026.49	226.425
2033.23	219.289
2039.98	223.859
2046.72	215.422
2053.47	227.202
2060.21	215.762
2066.95	221.799
2073.7	217.076
2080.44	225.265
2087.19	216.099
2093.93	219.625
2100.67	223.601
2107.42	213.921
2114.16	209.106
2120.91	212.472
2127.65	215.668
2134.4	223.436
2141.14	219.838
2147.88	220.195
2154.63	221.107
2161.37	226.142
2168.12	229.618
2174.86	225.358
2181.6	223.767
2188.35	219.746
2195.09	231.072
2201.84	223.164
2208.58	220.965
2215.32	219.89
2222.07	226.604
2228.81	225.837
2235.56	233.988
2242.3	229.706
2249.04	241.044
2255.79	236.395
2262.53	228.713
2269.28	236.711
2276.02	230.117
2282.77	244.334
2289.51	239.705
2296.25	235.818
2300	230.113