Folder: Graphs/Example Data/Raman/CNT - TIM/Raytheon/Microwave/Test 2 - From Anu (part 2)

File: LPCVD-Tc-700 - 5min - C_Micro-5min - bottom.txt
300	356.455
306.115	361.199
312.23	345.718
318.345	349.666
324.46	347.644
330.576	348.897
336.691	347.096
342.806	352.302
348.921	315.184
355.036	333.276
361.151	329.605
367.266	310.861
373.381	329.141
379.496	321.692
385.612	326.644
391.727	316.208
397.842	326.138
403.957	330.516
410.072	321.088
416.187	306.253
422.302	322.259
428.417	318.872
434.532	314.208
440.647	313.133
446.763	308.986
452.878	301.885
458.993	283.48
465.108	304.794
471.223	292.598
477.338	304.092
483.453	294.489
489.568	280.503
495.683	276.187
501.799	275.948
507.914	268.212
514.029	257.646
520.144	258.353
526.259	266.837
532.374	270.514
538.489	272.552
544.604	273.122
550.719	277.102
556.835	285.153
562.95	268.5
569.065	264.344
575.18	280.617
581.295	280.324
587.41	272.118
593.525	276.328
599.64	282.093
605.755	275.943
611.87	283.353
617.986	290.099
624.101	284.495
630.216	291.881
636.331	293.903
642.446	286.95
648.561	296.917
654.676	292.486
660.791	302.598
666.906	298.779
673.022	311.5
679.137	299.536
685.252	299.45
691.367	314.501
697.482	311.745
703.597	318.999
709.712	318.234
715.827	310.637
721.942	330.076
728.058	313.814
734.173	326.307
740.288	336.06
746.403	336.169
752.518	332.577
758.633	338.66
764.748	353.961
770.863	349.117
776.978	345.142
783.094	346.859
789.209	346.226
795.324	355.607
801.439	357.991
807.554	362.446
813.669	374.569
819.784	384.647
825.899	369.474
832.014	373.419
838.13	381.428
844.245	393.811
850.36	383.856
856.475	396.812
862.59	391.122
868.705	365.138
874.82	352.621
880.935	362.874
887.05	353.757
893.165	345.724
899.281	336.966
905.396	336.866
911.511	331.893
917.626	343.719
923.741	335.43
929.856	345.519
935.971	337.943
942.086	340.947
948.201	341.202
954.317	345.65
960.432	337.228
966.547	331.889
972.662	347.286
978.777	357.812
984.892	357.966
991.007	365.216
997.122	379.091
1003.24	394.822
1009.35	412.088
1015.47	406.957
1021.58	419.023
1027.7	428.028
1033.81	457.873
1039.93	464.382
1046.04	464.892
1052.16	466.3
1058.27	473.392
1064.39	488.449
1070.5	498.491
1076.62	515.846
1082.73	531.071
1088.85	536.495
1094.96	556.398
1101.08	578.626
1107.19	589.904
1113.31	603.487
1119.42	606.037
1125.54	620.981
1131.65	632.392
1137.77	650.129
1143.88	674.832
1150	708.53
1156.12	720.714
1162.23	718.174
1168.35	732.914
1174.46	774.973
1180.58	758.422
1186.69	761.026
1192.81	800.013
1198.92	822.366
1205.04	829.537
1211.15	852.382
1217.27	875.394
1223.38	899.307
1229.5	924.216
1235.61	982.904
1241.73	996.611
1247.84	1049.86
1253.96	1092.11
1260.07	1109.41
1266.19	1205.55
1272.3	1283.26
1278.42	1345.97
1284.53	1427.13
1290.65	1535.23
1296.76	1641.47
1302.88	1789.14
1308.99	1961.6
1315.11	2100.42
1321.22	2266.53
1327.34	2475.84
1333.45	2611.41
1339.57	2724.17
1345.68	2694.28
1351.8	2661.2
1357.91	2539.34
1364.03	2397.31
1370.14	2214.57
1376.26	2058.24
1382.37	1888.48
1388.49	1802.38
1394.6	1632.82
1400.72	1578.06
1406.83	1502.54
1412.95	1429.14
1419.06	1375.33
1425.18	1343.77
1431.29	1318.48
1437.41	1287.72
1443.53	1254.9
1449.64	1248.32
1455.76	1229.1
1461.87	1246.58
1467.99	1226.14
1474.1	1204.29
1480.22	1229.63
1486.33	1227.76
1492.45	1254.82
1498.56	1258.89
1504.68	1230.05
1510.79	1263.17
1516.91	1273.03
1523.02	1308.32
1529.14	1361.01
1535.25	1383.93
1541.37	1459.75
1547.48	1569.13
1553.6	1730.42
1559.71	1831.37
1565.83	2013.54
1571.94	2175.92
1578.06	2311.2
1584.17	2464.04
1590.29	2511.51
1596.4	2511.16
1602.52	2450.15
1608.63	2344.86
1614.75	2173.69
1620.86	1940.65
1626.98	1685.13
1633.09	1424.65
1639.21	1211.62
1645.32	1037.29
1651.44	893.896
1657.55	803.847
1663.67	680.434
1669.78	584.909
1675.9	536.412
1682.01	487.063
1688.13	455.907
1694.24	424.479
1700.36	408.593
1706.47	379.578
1712.59	379.379
1718.71	365.264
1724.82	348.196
1730.94	343.961
1737.05	331.496
1743.17	328.992
1749.28	332.484
1755.4	307.671
1761.51	318.473
1767.63	320.861
1773.74	312.142
1779.86	307.813
1785.97	307.85
1792.09	320.508
1798.2	314.496
1804.32	308.435
1810.43	307.699
1816.55	310.376
1822.66	319.253
1828.78	322.148
1834.89	306.729
1841.01	315.206
1847.12	313.443
1853.24	309.232
1859.35	310.192
1865.47	301.041
1871.58	311.875
1877.7	318.44
1883.81	308.635
1889.93	295.02
1896.04	308.341
1902.16	306.981
1908.27	308.96
1914.39	301.906
1920.5	301.364
1926.62	294.119
1932.73	309.337
1938.85	313.032
1944.96	305.624
1951.08	307.93
1957.19	308.585
1963.31	310.234
1969.42	303.517
1975.54	305.826
1981.65	307.651
1987.77	305.717
1993.88	307.056
2000	315.399

File: LPCVD-Tc-700 - 5min - C_noMW - bottom.txt
300	372.874
306.115	389.936
312.23	387.782
318.345	394.91
324.46	382.96
330.576	391.434
336.691	386.38
342.806	378.082
348.921	379.125
355.036	382.07
361.151	379.762
367.266	369.527
373.381	368.728
379.496	351.008
385.612	370.283
391.727	361.729
397.842	356.045
403.957	359.516
410.072	346.141
416.187	374.497
422.302	349.171
428.417	356.329
434.532	353.059
440.647	345.937
446.763	351.276
452.878	337.741
458.993	317.633
465.108	345.951
471.223	324.376
477.338	316.805
483.453	318.459
489.568	291.593
495.683	296.367
501.799	305.136
507.914	295.443
514.029	290.912
520.144	303.275
526.259	294.856
532.374	296.894
538.489	300.873
544.604	301.75
550.719	1759.09
556.835	305.881
562.95	306.437
569.065	301.881
575.18	318.706
581.295	310.102
587.41	304.826
593.525	316.071
599.64	315.061
605.755	307.756
611.87	318.671
617.986	315.657
624.101	308.498
630.216	326.811
636.331	323.812
642.446	323.016
648.561	326.462
654.676	335.453
660.791	334.575
666.906	326.157
673.022	325.588
679.137	327.167
685.252	328.571
691.367	339.783
697.482	329.206
703.597	343.938
709.712	351.691
715.827	336.337
721.942	343.03
728.058	368.889
734.173	361.934
740.288	365.574
746.403	351.665
752.518	368.263
758.633	376.511
764.748	368.612
770.863	373.44
776.978	382.492
783.094	386.769
789.209	383.206
795.324	398.334
801.439	383.159
807.554	404.879
813.669	412.836
819.784	409.437
825.899	422.046
832.014	406.056
838.13	415.303
844.245	425.469
850.36	404.555
856.475	425.463
862.59	404.88
868.705	388
874.82	394.345
880.935	373.751
887.05	383.888
893.165	385.254
899.281	382.141
905.396	367.725
911.511	365.279
917.626	372.85
923.741	365.066
929.856	362.362
935.971	391.02
942.086	368.472
948.201	381.677
954.317	373.019
960.432	366.034
966.547	377.5
972.662	387.496
978.777	385.613
984.892	397.129
991.007	401.401
997.122	418.649
1003.24	435.396
1009.35	446.976
1015.47	454.276
1021.58	466.568
1027.7	475.725
1033.81	485.896
1039.93	505.289
1046.04	512.658
1052.16	520.108
1058.27	536.919
1064.39	522.741
1070.5	553.436
1076.62	561.299
1082.73	576.992
1088.85	584.116
1094.96	605.303
1101.08	609.764
1107.19	637.583
1113.31	645.778
1119.42	662.84
1125.54	677.166
1131.65	685.135
1137.77	737.739
1143.88	751.386
1150	771.521
1156.12	813.21
1162.23	816.565
1168.35	830.854
1174.46	864.034
1180.58	851.143
1186.69	878.18
1192.81	885.849
1198.92	896.379
1205.04	917.38
1211.15	953.268
1217.27	982.894
1223.38	1021.88
1229.5	1045.17
1235.61	1100.59
1241.73	1132.71
1247.84	1183.67
1253.96	1241.4
1260.07	1291.81
1266.19	1358.9
1272.3	1430.88
1278.42	1501.04
1284.53	1623.46
1290.65	1710.18
1296.76	1803.79
1302.88	1875.06
1308.99	2036.77
1315.11	2130.01
1321.22	2252.79
1327.34	2253.48
1333.45	2325.68
1339.57	2380.81
1345.68	2350.55
1351.8	2288.24
1357.91	2218.89
1364.03	2112.74
1370.14	2041.59
1376.26	1944.6
1382.37	1839.7
1388.49	1763.22
1394.6	1689.2
1400.72	1634.16
1406.83	1533.15
1412.95	1479.05
1419.06	1424.5
1425.18	1399.42
1431.29	1378.44
1437.41	1368.33
1443.53	1349.26
1449.64	1326.86
1455.76	1331.89
1461.87	1309.17
1467.99	1284.65
1474.1	1337.28
1480.22	1313.56
1486.33	1299.15
1492.45	1305
1498.56	1317.61
1504.68	1334.43
1510.79	1338.71
1516.91	1342.72
1523.02	1394.98
1529.14	1397.04
1535.25	1466.07
1541.37	1531.54
1547.48	1594.23
1553.6	1690.62
1559.71	1803.59
1565.83	1948.32
1571.94	2069.28
1578.06	2183.51
1584.17	2275.76
1590.29	2312.6
1596.4	2298.67
1602.52	2233.47
1608.63	2052.91
1614.75	1833.53
1620.86	1601.49
1626.98	1380.2
1633.09	1182.83
1639.21	1041.96
1645.32	909.954
1651.44	805.939
1657.55	707.544
1663.67	625.262
1669.78	545.774
1675.9	497.215
1682.01	458.954
1688.13	428.359
1694.24	398.613
1700.36	384.568
1706.47	367.49
1712.59	352.539
1718.71	342.097
1724.82	337.522
1730.94	322.251
1737.05	325.558
1743.17	314.684
1749.28	306.739
1755.4	312.453
1761.51	293.374
1767.63	301.349
1773.74	301.853
1779.86	287.148
1785.97	300.689
1792.09	285.379
1798.2	286.63
1804.32	274.708
1810.43	274.265
1816.55	282.269
1822.66	279.568
1828.78	268.75
1834.89	278.913
1841.01	277.813
1847.12	262.887
1853.24	270.089
1859.35	283.197
1865.47	273.98
1871.58	263.348
1877.7	278.77
1883.81	264.979
1889.93	273.809
1896.04	258.189
1902.16	265.55
1908.27	266.466
1914.39	271.691
1920.5	260.473
1926.62	268.505
1932.73	257.688
1938.85	262.833
1944.96	265.504
1951.08	265.982
1957.19	261.864
1963.31	261.485
1969.42	269.474
1975.54	271.3
1981.65	266.047
1987.77	259.384
1993.88	280.29
2000	270.403

File: LPCVD-Tc-700 - 5min - C_noMW - top.txt
300	268.132
306.115	273.236
312.23	274.711
318.345	274.429
324.46	279.197
330.576	280.089
336.691	273.02
342.806	271.119
348.921	265.412
355.036	251.942
361.151	249.97
367.266	251.546
373.381	252.907
379.496	248.242
385.612	252.251
391.727	249.466
397.842	254.012
403.957	243.343
410.072	239.968
416.187	250.5
422.302	239.121
428.417	238.839
434.532	247.973
440.647	238.65
446.763	241.56
452.878	241.661
458.993	227.007
465.108	228.03
471.223	230.031
477.338	215.101
483.453	223.8
489.568	212.427
495.683	214.464
501.799	211.27
507.914	203.895
514.029	210.49
520.144	209.845
526.259	210.456
532.374	200.957
538.489	211.797
544.604	219.201
550.719	208.006
556.835	218.611
562.95	210.751
569.065	225.903
575.18	219.08
581.295	224.991
587.41	217.465
593.525	221.046
599.64	230.827
605.755	219.026
611.87	222.19
617.986	223.949
624.101	231.094
630.216	232.906
636.331	230.037
642.446	221.199
648.561	236.271
654.676	237.089
660.791	230.776
666.906	232.749
673.022	239.574
679.137	232.96
685.252	231.824
691.367	248.894
697.482	242.668
703.597	241.433
709.712	241.707
715.827	245.5
721.942	247.879
728.058	254.328
734.173	252.967
740.288	257.988
746.403	270.485
752.518	267.571
758.633	269.523
764.748	273.641
770.863	275.761
776.978	276.568
783.094	274.999
789.209	282.869
795.324	292.884
801.439	298.967
807.554	298.263
813.669	290.279
819.784	303.658
825.899	296.136
832.014	302.939
838.13	308.886
844.245	314.414
850.36	301.303
856.475	308.437
862.59	283.374
868.705	293.087
874.82	296.966
880.935	280.123
887.05	270.81
893.165	267.407
899.281	255.533
905.396	255.474
911.511	260.243
917.626	252.612
923.741	261.03
929.856	249.082
935.971	259.192
942.086	256.506
948.201	254.427
954.317	252.007
960.432	263.348
966.547	261.75
972.662	262.15
978.777	264.616
984.892	273.37
991.007	275.281
997.122	286.219
1003.24	292.706
1009.35	310.31
1015.47	305.978
1021.58	307.546
1027.7	317.331
1033.81	325.197
1039.93	341.927
1046.04	354.083
1052.16	365.457
1058.27	369.94
1064.39	366.429
1070.5	372.011
1076.62	386.747
1082.73	386.684
1088.85	402.504
1094.96	411.237
1101.08	417.223
1107.19	444.777
1113.31	446.705
1119.42	457.884
1125.54	480.265
1131.65	490.029
1137.77	514.591
1143.88	536.554
1150	548.524
1156.12	561.055
1162.23	578.119
1168.35	584.619
1174.46	595.145
1180.58	601.006
1186.69	616.764
1192.81	638.062
1198.92	648.125
1205.04	650.761
1211.15	673.839
1217.27	708.825
1223.38	733.573
1229.5	744.435
1235.61	770.491
1241.73	804.053
1247.84	819.448
1253.96	881.95
1260.07	925.79
1266.19	958.414
1272.3	1001.73
1278.42	1076.86
1284.53	1133.43
1290.65	1192.51
1296.76	1273.88
1302.88	1356.12
1308.99	1460.79
1315.11	1497.97
1321.22	1582
1327.34	1690.48
1333.45	1696.06
1339.57	1735.47
1345.68	1734.31
1351.8	1700.06
1357.91	1651.91
1364.03	1623.79
1370.14	1519.94
1376.26	1435.34
1382.37	1368.87
1388.49	1281.94
1394.6	1212.3
1400.72	1158.01
1406.83	1116.44
1412.95	1074.56
1419.06	1044.34
1425.18	1007.2
1431.29	992.659
1437.41	990.21
1443.53	953.987
1449.64	930.144
1455.76	949.783
1461.87	923.574
1467.99	939.545
1474.1	931.74
1480.22	921.927
1486.33	908.446
1492.45	926.223
1498.56	913.994
1504.68	934.033
1510.79	919.235
1516.91	940.038
1523.02	953.458
1529.14	958.964
1535.25	1006.55
1541.37	1038.19
1547.48	1090.96
1553.6	1181.34
1559.71	1237.89
1565.83	1351.61
1571.94	1440.93
1578.06	1525.97
1584.17	1645.71
1590.29	1698.65
1596.4	1720.82
1602.52	1694.04
1608.63	1573.55
1614.75	1428.64
1620.86	1221.61
1626.98	1052.65
1633.09	902.353
1639.21	776.081
1645.32	675.894
1651.44	579.71
1657.55	517.747
1663.67	456.468
1669.78	394.178
1675.9	346.327
1682.01	307.131
1688.13	280.027
1694.24	266.735
1700.36	252.67
1706.47	242.282
1712.59	223.678
1718.71	221.608
1724.82	211.184
1730.94	192.762
1737.05	188.029
1743.17	191.518
1749.28	189.661
1755.4	186.587
1761.51	187.381
1767.63	186.244
1773.74	183.289
1779.86	177.672
1785.97	169.496
1792.09	174.981
1798.2	180.106
1804.32	164.206
1810.43	173.53
1816.55	172.936
1822.66	175.165
1828.78	171.362
1834.89	172.724
1841.01	161.845
1847.12	172.287
1853.24	175.293
1859.35	168.48
1865.47	166.561
1871.58	166.845
1877.7	176.571
1883.81	165.518
1889.93	169.061
1896.04	163.427
1902.16	163.619
1908.27	153.854
1914.39	165.052
1920.5	165.494
1926.62	154.758
1932.73	156.603
1938.85	154.262
1944.96	164.847
1951.08	164.164
1957.19	158.973
1963.31	167.629
1969.42	155.521
1975.54	163.857
1981.65	166.163
1987.77	160.55
1993.88	152.136
2000	164.446