Folder: Graphs/Example Data/Raman/CNT - TIM/Raytheon/Cu foil/08-12-10

Note: README.md
# Graphs
A macOS app that manages the organization of data files and graphs them.

Licensed under the MIT licensing terms: https://opensource.org/licenses/MIT

Hildreth wrote the precursor to Graphs, then called GraphBase, during his Ph.D. to help manage the data he was collecting as part of his research on Metal-assisted Chemical Etching of Silicon.  He was becoming overwhelmed by the hundreds of data files he was collecting every week and was inspired by the Papers and iTunes applications on OS X (now macOS) to create an application that managed data.  GraphBase provided an easy template to create a parser, a simple UI to organize data into hiarchical folders, and leveraged the DataGraph framework (http://www.visualdatatools.com/DataGraph/Framework/) for graphing.  DataGraph (http://www.visualdatatools.com/DataGraph/) is an amazing 2D graphing application and you will need to purchase a DataGraph license from Visual Data Tools in order to use Graphs.

Graphs is a rewrite of GraphBase in Swift written by Connor and then re-written again by Hildreth that has been open sourced for use by all.  Please not that you will need a DataGraph license to create the graph templates used by the DataGraph framework underlying Graphs.  Hildreth plans to continue evolving this application.  The next plan improvements are: multithreading for import and parsing using the new Results type in Swift; and begin switching over to SwiftUI for the UI.  Long term, we hope to add support for data analysis and extraction.

# Overview
Graphs is a data management tool that allows you to store your raw data files in a text formate (CSV, tab delimited, etc.) and then have those files parsed and graphed when selected.  Graphs uses the DataGraph fromework 

To use Graphs, first you create an example graph, what we call a Graph Template, in DataGraph.  Format the graph the way you want it to look and make sure that the Data Columns are in the same order as the columns in your data.  Next, you  add your "Graph Template" to Graphs using either the Graph Template Inspector on the right side of Graphs using using the "+" sign on the bottom left of the application.  You can also drag-and-drop the file onto a folder in the Source List.  Once you add a Graph Template, you can assign it to be the default Graph Template for a folder and any sub-folders using the Folder Inspector.

The second step is to make a Paser using the Parser Inspector.  It might be helpful to have an example file already in Graphs (see Step 3) because you can use the Text Inspector to see what lines your Experimental Details, Header, and Data start at.  Add a Parse Template using the + sign in the Parse Inspector's table and give the Parse Template a name.  If your data has experimental details at the top, then select the checkbox and set the starting and ending lines for this information.  If your data has a Header, select the Header checkbox, give it starting and ending line numbers, and then select the type of s

File: Cu batch 2 bottom copy.txt
300	65.0113
300.759	66.9259
301.518	71.2135
302.278	70.8018
303.037	71.5695
303.796	74.5281
304.555	74.5122
305.314	67.7619
306.073	68.5948
306.833	66.3941
307.592	74.0983
308.351	77.4373

File: Cu batch 2 bottom.txt
300	65.0113
306.073	68.5948
312.147	72.5477
318.22	75.7914
324.294	56.907
330.367	61.6011
336.44	62.5619
342.514	44.3863
348.587	55.3852
354.66	48.8408
360.734	45.6981
366.807	51.8729
372.881	48.1829
378.954	43.4949
385.027	42.8346
391.101	50.8676
397.174	43.319
403.248	39.8175
409.321	32.0332
415.394	35.2845
421.468	39.4937
427.541	38.3752
433.615	30.3035
439.688	33.4322
445.761	30.2356
451.835	22.9831
457.908	20.65
463.981	10.2848
470.055	20.147
476.128	22.8468
482.202	22.3037
488.275	5.64073
494.348	5.81021
500.422	2.48148
506.495	-2.6641
512.569	7.01915
518.642	4.75737
524.715	2.04497
530.789	-5.01975
536.862	-6.8402
542.935	-11.3771
549.009	1.38627
555.082	-6.27684
561.156	2.94804
567.229	-1.18483
573.302	0.91367
579.376	-4.8509
585.449	2.47217
591.523	-2.54581
597.596	4.93459
603.669	-1.0831
609.743	3.12237
615.816	4.81921
621.89	0.539462
627.963	2.6617
634.036	0.373761
640.11	11.7335
646.183	-0.0978061
652.256	0.0488431
658.33	-2.48397
664.403	7.34904
670.477	8.36981
676.55	13.8156
682.623	3.07727
688.697	4.0297
694.77	6.51586
700.844	9.28749
706.917	-0.175423
712.99	11.8829
719.064	7.5367
725.137	12.3382
731.21	9.44074
737.284	12.8622
743.357	23.069
749.431	18.293
755.504	23.9733
761.577	26.9785
767.651	33.1323
773.724	31.0527
779.798	21.703
785.871	30.267
791.944	30.4741
798.018	33.6699
804.091	34.1964
810.164	29.1441
816.238	43.6615
822.311	33.8614
828.385	28.988
834.458	44.4755
840.531	39.6941
846.605	39.7285
852.678	52.3834
858.752	36.523
864.825	40.2801
870.898	31.7725
876.972	23.8159
883.045	18.0337
889.119	26.3975
895.192	15.1159
901.265	13.9327
907.339	18.9016
913.412	0.172586
919.485	5.33596
925.559	3.02335
931.632	0.543958
937.706	-0.435861
943.779	-7.06442
949.852	-11.4514
955.926	-8.15933
961.999	-10.8271
968.073	-16.4714
974.146	-19.452
980.219	-23.8944
986.293	-20.1986
992.366	-10.4253
998.439	-20.8885
1004.51	-22.8966
1010.59	-27.5428
1016.66	-21.7766
1022.73	-9.24343
1028.81	-21.1578
1034.88	-16.5879
1040.95	-18.0101
1047.03	-6.7984
1053.1	-16.5956
1059.17	-11.4485
1065.25	-16.9196
1071.32	-26.8895
1077.39	-6.27652
1083.47	-13.1635
1089.54	-11.8923
1095.61	-19.9789
1101.69	-6.04503
1107.76	-6.85562
1113.83	-11.5511
1119.91	-12.2495
1125.98	-14.2715
1132.05	-8.91687
1138.13	-17.7714
1144.2	-18.0755
1150.27	-2.57996
1156.35	-10.6749
1162.42	-8.80216
1168.49	-2.29252
1174.57	-4.10289
1180.64	2.78696
1186.71	1.8791
1192.79	8.36587
1198.86	4.41305
1204.93	8.1073
1211.01	1.23013
1217.08	13.0321
1223.15	26.4702
1229.23	27.8344
1235.3	44.568
1241.375	47.816
1247.45	75.0312
1253.52	98.2882
1259.6	93.4817
1265.67	128.434
1271.74	149.377
1277.82	188.676
1283.89	201.172
1289.96	258.133
1296.04	312.996
1302.11	380.294
1308.18	428.311
1314.26	501.085
1320.33	611.986
1326.4	697.744
1332.48	768.56
1338.55	815.353
1344.62	805.287
1350.7	748.639
1356.77	672.039
1362.84	573.062
1368.92	485.062
1374.99	415.985
1381.06	325.375
1387.14	245.941
1393.21	222.061
1399.28	171.477
1405.36	131.085
1411.43	109.289
1417.5	71.7957
1423.58	67.925
1429.65	47.0284
1435.72	47.1739
1441.8	12.2707
1447.87	5.93333
1453.94	1.64533
1460.02	-12.4232
1466.09	12.4394
1472.16	18.5518
1478.24	10.9107
1484.31	22.3692
1490.38	39.4968
1496.46	51.6736
1502.53	85.6739
1508.6	78.4389
1514.68	115.255
1520.75	153.006
1526.82	168.892
1532.9	232.091
1538.97	270.476
1545.04	374.17
1551.12	481.411
1557.19	599.786
1563.26	694.141
1569.34	814.011
1575.41	888.653
1581.48	894.964
1587.56	902.217
1593.63	869.316
1599.7	808.492
1605.78	751.205
1611.85	666.214
1617.92	555.732
1624	440.126
1630.07	348.586
1636.15	245.178
1642.22	185.588
1648.29	121.974
1654.37	88.2943
1660.44	67.2334
1666.51	38.3382
1672.59	20.8795
1678.66	8.78148
1684.73	5.91051
1690.81	2.19004
1696.88	2.85168
1702.95	-3.50673
1709.03	-0.0350593
1715.1	1.14013
1721.17	3.38548
1727.25	1.73866
1733.32	7.05814
1739.39	7.54307
1745.47	7.42319
1751.54	6.26981
1757.61	-3.45269
1763.69	2.93271
1769.76	4.09057
1775.83	-1.00471
1781.91	-11.201
1787.98	2.27142
1794.05	-3.81723
1800.13	-12.6701
1806.2	-1.04738
1812.27	-4.77352
1818.35	-18.4071
1824.42	-12.1067
1830.49	-3.11717
1836.57	-11.5156
1842.64	-3.80155
1848.71	-10.0812
1854.79	-2.71938
1860.86	-7.49036
1866.93	-7.84877
1873.01	-6.50832
1879.08	-14.5508
1885.15	-8.39826
1891.23	-7.88175
1897.3	-11.002
1903.37	-10.094
1909.45	-4.37243
1915.52	-17.2285
1921.59	-13.2833
1927.67	-6.41197
1933.74	-16.0273
1939.81	-6.76032
1945.89	-9.81086
1951.96	-5.95411
1958.03	-5.02759
1964.11	-11.532
1970.18	-3.81288
1976.25	-9.47204
1982.33	-7.63811
1988.4	2.26465
1994.47	-8.98768
2000.55	0.429321
2006.62	-1.71392
2012.7	-0.616174
2018.77	-4.04714
2024.84	3.29851
2030.92	0.0879935
2036.99	-0.368752
2043.06	1.0002
2049.14	10.1394
2055.21	1.33847
2061.28	8.62346
2067.36	4.78832
2073.43	13.5835
2079.5	8.12909
2085.58	6.68242
2091.65	4.90694
2097.72	7.6727
2100	12.1178

File: Cu batch 2 top copy.txt
300	58.2119
300.759	73.9834
301.518	60.7736
302.278	61.0978
303.037	61.0352
303.796	60.2358
304.555	62.0875
305.314	62.7765
306.073	69.026
306.833	62.2685
307.592	67.9652
308.351	60.5817
309.11	61.0136
309.869	67.3897

File: Cu batch 2 top.txt
300	58.2119
306.073	69.026
312.147	73.0039
318.22	54.4704
324.294	62.6557
330.367	61.8113
336.44	50.7762
342.514	53.6548
348.587	56.0748
354.66	62.1831
360.734	50.5309
366.807	49.5328
372.881	55.0914
378.954	48.8957
385.027	40.2461
391.101	44.198
397.174	44.2367
403.248	41.2519
409.321	39.6815
415.394	37.3048
421.468	40.1669
427.541	37.7838
433.615	33.5293
439.688	31.5592
445.761	31.3096
451.835	21.3003
457.908	34.8633
463.981	32.9101
470.055	24.8124
476.128	25.4795
482.202	27.4607
488.275	23.1863
494.348	16.4783
500.422	8.21169
506.495	12.2651
512.569	1.53683
518.642	0.512034
524.715	-0.381853
530.789	12.0654
536.862	7.97764
542.935	6.75519
549.009	6.97978
555.082	10.4608
561.156	3.32336
567.229	9.06475
573.302	7.49763
579.376	5.38836
585.449	10.3731
591.523	1.69007
597.596	12.2013
603.669	5.77699
609.743	5.18222
615.816	13.4234
621.89	9.90245
627.963	6.83996
634.036	3.50729
640.11	7.97758
646.183	13.7815
652.256	9.30008
658.33	13.6356
664.403	18.1073
670.477	6.35552
676.55	16.2925
682.623	23.2169
688.697	12.1156
694.77	14.1431
700.844	5.5945
706.917	18.6931
712.99	15.1414
719.064	22.392
725.137	23.7562
731.21	26.1955
737.284	30.185
743.357	31.1462
749.431	29.8723
755.504	27.8852
761.577	20.9667
767.651	36.392
773.724	26.9047
779.798	31.4256
785.871	37.0355
791.944	35.646
798.018	44.2627
804.091	44.8493
810.164	39.7017
816.238	51.5462
822.311	41.525
828.385	39.8652
834.458	51.9499
840.531	41.0736
846.605	42.637
852.678	50.4332
858.752	40.6759
864.825	46.0664
870.898	38.4483
876.972	32.6108
883.045	32.2421
889.119	20.3551
895.192	11.5383
901.265	12.4842
907.339	11.3439
913.412	4.397
919.485	1.41233
925.559	5.40252
931.632	-2.46933
937.706	1.3874
943.779	-3.13954
949.852	-1.48664
955.926	-0.239562
961.999	1.00579
968.073	-9.09922
974.146	2.25728
980.219	-9.4242
986.293	-2.10004
992.366	-0.116781
998.439	-9.198
1004.51	1.78956
1010.59	1.90858
1016.66	-1.22033
1022.73	3.85506
1028.81	-2.68002
1034.88	-5.98232
1040.95	-1.29452
1047.03	-5.67176
1053.1	4.67303
1059.17	-1.81043
1065.25	-2.05548
1071.32	-10.6217
1077.39	-1.40828
1083.47	-6.21788
1089.54	-2.11377
1095.61	-3.2088
1101.69	3.71104
1107.76	0.734199
1113.83	4.84658
1119.91	6.81907
1125.98	8.34555
1132.05	11.4467
1138.13	4.80179
1144.2	4.29598
1150.27	22.0604
1156.35	31.4334
1162.42	-2.34977
1168.49	19.7218
1174.57	9.06583
1180.64	9.68606
1186.71	22.703
1192.79	5.40369
1198.86	27.2084
1204.93	21.336
1211.01	32.959
1217.08	29.8527
1223.15	34.9673
1229.23	59.1411
1235.3	64.3971
1241.375	50.3178
1247.45	71.4836
1253.52	70.4517
1259.6	117.465
1265.67	106.287
1271.74	130.037
1277.82	159.803
1283.89	187.585
1289.96	223.565
1296.04	253.457
1302.11	295.048
1308.18	358.385
1314.26	417.721
1320.33	479.221
1326.4	534.226
1332.48	610.011
1338.55	667.76
1344.62	706.698
1350.7	680.4
1356.77	647.526
1362.84	581.605
1368.92	519.697
1374.99	418.753
1381.06	359.422
1387.14	304.171
1393.21	249.983
1399.28	197.129
1405.36	171.809
1411.43	130.193
1417.5	101.884
1423.58	74.2376
1429.65	58.5822
1435.72	49.1471
1441.8	18.4321
1447.87	33.7242
1453.94	12.1383
1460.02	18.9613
1466.09	13.9628
1472.16	-2.15196
1478.24	22.078
1484.31	20.0585
1490.38	28.2081
1496.46	51.0045
1502.53	67.8499
1508.6	59.5014
1514.68	81.3879
1520.75	108.693
1526.82	111.711
1532.9	156.98
1538.97	175.281
1545.04	247.098
1551.12	292.933
1557.19	354.441
1563.26	435.619
1569.34	515.629
1575.41	596.263
1581.48	685.026
1587.56	732.216
1593.63	752.067
1599.7	730.402
1605.78	707.803
1611.85	672.563
1617.92	617.95
1624	496.748
1630.07	399.048
1636.15	308.662
1642.22	230.866
1648.29	176.494
1654.37	120.908
1660.44	71.3413
1666.51	52.5294
1672.59	34.1502
1678.66	21.2169
1684.73	10.5406
1690.81	-0.767595
1696.88	3.73534
1702.95	2.18843
1709.03	-1.22438
1715.1	2.52834
1721.17	1.46702
1727.25	6.0693
1733.32	10.6716
1739.39	12.4431
1745.47	5.8188
1751.54	9.97802
1757.61	10.2376
1763.69	6.61306
1769.76	11.084
1775.83	9.43526
1781.91	8.31921
1787.98	5.85371
1794.05	11.099
1800.13	9.94022
1806.2	9.22191
1812.27	8.02098
1818.35	13.9726
1824.42	6.92224
1830.49	10.9526
1836.57	5.44781
1842.64	3.96275
1848.71	8.14956
1854.79	10.3058
1860.86	7.51582
1866.93	0.910499
1873.01	5.16796
1879.08	1.25466
1885.15	4.26333
1891.23	13.1335
1897.3	6.86442
1903.37	14.5227
1909.45	9.129
1915.52	12.2981
1921.59	6.61808
1927.67	12.3442
1933.74	11.3031
1939.81	9.86164
1945.89	6.35111
1951.96	18.7889
1958.03	2.59902
1964.11	8.729
1970.18	8.45487
1976.25	7.69701
1982.33	13.2527
1988.4	10.6544
1994.47	13.8968
2000.55	7.08447
2006.62	10.9004
2012.7	12.0194
2018.77	16.6987
2024.84	16.8828
2030.92	10.571
2036.99	15.3271
2043.06	17.2533
2049.14	14.0944
2055.21	14.3491
2061.28	11.1033
2067.36	20.4368
2073.43	18.2477
2079.5	12.8874
2085.58	17.9207
2091.65	9.08403
2097.72	10.6072
2100	15.3749