Folder: Graphs/Example Data/Raman/CNT - TIM/Raytheon/Cu foil/08-10-10

Note: README.md
# Graphs
A macOS app that manages the organization of data files and graphs them.

Licensed under the MIT licensing terms: https://opensource.org/licenses/MIT

Hildreth wrote the precursor to Graphs, then called GraphBase, during his Ph.D. to help manage the data he was collecting as part of his research on Metal-assisted Chemical Etching of Silicon.  He was becoming overwhelmed by the hundreds of data files he was collecting every week and was inspired by the Papers and iTunes applications on OS X (now macOS) to create an application that managed data.  GraphBase provided an easy template to create a parser, a simple UI to organize data into hiarchical folders, and leveraged the DataGraph framework (http://www.visualdatatools.com/DataGraph/Framework/) for graphing.  DataGraph (http://www.visualdatatools.com/DataGraph/) is an amazing 2D graphing application and you will need to purchase a DataGraph license from Visual Data Tools in order to use Graphs.

Graphs is a rewrite of GraphBase in Swift written by Connor and then re-written again by Hildreth that has been open sourced for use by all.  Please not that you will need a DataGraph license to create the graph templates used by the DataGraph framework underlying Graphs.  Hildreth plans to continue evolving this application.  The next plan improvements are: multithreading for import and parsing using the new Results type in Swift; and begin switching over to SwiftUI for the UI.  Long term, we hope to add support for data analysis and extraction.

# Overview
Graphs is a data management tool that allows you to store your raw data files in a text formate (CSV, tab delimited, etc.) and then have those files parsed and graphed when selected.  Graphs uses the DataGraph fromework 

To use Graphs, first you create an example graph, what we call a Graph Template, in DataGraph.  Format the graph the way you want it to look and make sure that the Data Columns are in the same order as the columns in your data.  Next, you  add your "Graph Template" to Graphs using either the Graph Template Inspector on the right side of Graphs using using the "+" sign on the bottom left of the application.  You can also drag-and-drop the file onto a folder in the Source List.  Once you add a Graph Template, you can assign it to be the default Graph Template for a folder and any sub-folders using the Folder Inspector.

The second step is to make a Paser using the Parser Inspector.  It might be helpful to have an example file already in Graphs (see Step 3) because you can use the Text Inspector to see what lines your Experimental Details, Header, and Data start at.  Add a Parse Template using the + sign in the Parse Inspector's table and give the Parse Template a name.  If your data has experimental details at the top, then select the checkbox and set the starting and ending lines for this information.  If your data has a Header, select the Header checkbox, give it starting and ending line numbers, and then select the type of s

File: Cu foil_bottom.txt
300	18.4507
306.073	18.0912
312.147	22.4697
318.22	22.1687
324.294	16.5153
330.367	25.1913
336.44	30.9984
342.514	19.3163
348.587	26.6398
354.66	22.5833
360.734	18.0869
366.807	29.2773
372.881	14.9614
378.954	17.4255
385.027	19.7635
391.101	8.39529
397.174	23.9634
403.248	20.2908
409.321	28.3653
415.394	14.4681
421.468	20.0645
427.541	12.7362
433.615	20.417
439.688	18.7654
445.761	17.6122
451.835	23.2509
457.908	18.0961
463.981	21.7257
470.055	27.6401
476.128	20.3872
482.202	8.66566
488.275	5.81074
494.348	10.0139
500.422	9.65649
506.495	1.86087
512.569	8.89569
518.642	-7.34543
524.715	-0.180289
530.789	3.2033
536.862	1.91246
542.935	-1.42197
549.009	12.5609
555.082	1.02015
561.156	7.0639
567.229	10.5307
573.302	9.11473
579.376	6.01471
585.449	12.1175
591.523	10.8417
597.596	4.85773
603.669	9.93087
609.743	12.8441
615.816	7.42944
621.89	3.85515
627.963	9.15279
634.036	1.75159
640.11	13.7318
646.183	17.3069
652.256	17.1451
658.33	8.98327
664.403	13.8053
670.477	20.9836
676.55	19.9192
682.623	15.1915
688.697	14.2301
694.77	15.5205
700.844	15.7508
706.917	14.3822
712.99	15.7336
719.064	9.99935
725.137	23.7338
731.21	19.8485
737.284	27.1383
743.357	25.1473
749.431	22.3089
755.504	36.904
761.577	37.9245
767.651	36.2836
773.724	33.5647
779.798	36.8807
785.871	33.2362
791.944	34.3062
798.018	44.2578
804.091	46.2537
810.164	51.1779
816.238	45.2558
822.311	44.9569
828.385	61.6788
834.458	52.7829
840.531	42.5171
846.605	58.4009
852.678	45.621
858.752	60.5882
864.825	41.1035
870.898	47.3725
876.972	35.9643
883.045	31.4904
889.119	24.4575
895.192	23.3789
901.265	16.5514
907.339	21.5939
913.412	17.8806
919.485	10.8509
925.559	10.9096
931.632	7.03359
937.706	2.71365
943.779	3.93754
949.852	6.89989
955.926	-0.191417
961.999	0.887947
968.073	-8.37959
974.146	-2.58761
980.219	-9.51193
986.293	-5.96534
992.366	-3.22104
998.439	-0.866408
1004.51	-8.66978
1010.59	-6.90543
1016.66	-5.36834
1022.73	-2.34462
1028.81	-11.5738
1034.88	6.82756
1040.95	-5.59096
1047.03	-2.67868
1053.1	-8.26775
1059.17	-5.46196
1065.25	-2.13805
1071.32	-10.7063
1077.39	-4.33522
1083.47	-2.70084
1089.54	-2.54568
1095.61	-4.31835
1101.69	-0.838877
1107.76	4.89292
1113.83	9.15802
1119.91	6.16226
1125.98	5.06249
1132.05	13.9553
1138.13	18.7576
1144.2	31.275
1150.27	35.4858
1156.35	53.5979
1162.42	50.4294
1168.49	59.8103
1174.57	71.0348
1180.64	83.6565
1186.71	72.4333
1192.79	86.5571
1198.86	88.9829
1204.93	99.1085
1211.01	114.983
1217.08	108.556
1223.15	134.189
1229.23	145.892
1235.3	168.813
1241.375	177.992
1247.45	206.059
1253.52	212.463
1259.6	262.94
1265.67	303.786
1271.74	306.256
1277.82	391.257
1283.89	424.968
1289.96	492.871
1296.04	573.581
1302.11	644.009
1308.18	745.9
1314.26	854.652
1320.33	984.678
1326.4	1125.53
1332.48	1251.95
1338.55	1412.36
1344.62	1476.08
1350.7	1502.9
1356.77	1434.81
1362.84	1295.45
1368.92	1141.8
1374.99	952.373
1381.06	821.919
1387.14	666.129
1393.21	542.654
1399.28	461.924
1405.36	350.127
1411.43	286.038
1417.5	242.472
1423.58	177.384
1429.65	129.784
1435.72	101.601
1441.8	83.3797
1447.87	66.4402
1453.94	40.1233
1460.02	32.2999
1466.09	3.64179
1472.16	6.27819
1478.24	4.75885
1484.31	14.0861
1490.38	6.10003
1496.46	-0.914244
1502.53	20.0965
1508.6	43.7534
1514.68	64.7981
1520.75	102.144
1526.82	124.75
1532.9	162.455
1538.97	201.178
1545.04	276.85
1551.12	331.07
1557.19	500.872
1563.26	577.01
1569.34	746.369
1575.41	907.16
1581.48	1087.45
1587.56	1223.98
1593.63	1326.75
1599.7	1312.69
1605.78	1308.32
1611.85	1249.53
1617.92	1138.66
1624	956.887
1630.07	734.763
1636.15	540.066
1642.22	385.571
1648.29	290.216
1654.37	187.143
1660.44	124.85
1666.51	73.726
1672.59	44.982
1678.66	6.03235
1684.73	1.75552
1690.81	-2.04599
1696.88	-10.3979
1702.95	-12.8048
1709.03	-11.8941
1715.1	-7.11968
1721.17	-7.24551
1727.25	-7.69511
1733.32	-9.21982
1739.39	-6.49189
1745.47	-2.50882
1751.54	-0.0415949
1757.61	0.255738
1763.69	3.56845
1769.76	-2.04701
1775.83	-0.905623
1781.91	2.35115
1787.98	-0.0310921
1794.05	1.04775
1800.13	-7.11773
1806.2	-2.54723
1812.27	-1.29547
1818.35	2.59187
1824.42	4.26955
1830.49	0.191458
1836.57	3.69092
1842.64	4.82692
1848.71	-0.332811
1854.79	8.59294
1860.86	2.19391
1866.93	9.78779
1873.01	7.28759
1879.08	-2.07344
1885.15	2.15894
1891.23	6.61012
1897.3	-2.09106
1903.37	-5.1604
1909.45	0.484569
1915.52	-0.347546
1921.59	-7.25367
1927.67	-1.19449
1933.74	-0.415079
1939.81	0.623442
1945.89	-0.862504
1951.96	-1.50404
1958.03	-3.0449
1964.11	-6.42865
1970.18	-3.67019
1976.25	-4.73984
1982.33	-5.74868
1988.4	-5.74808
1994.47	-1.21129
2000.55	-13.6736
2006.62	0.0309946
2012.7	-0.880215
2018.77	-5.53545
2024.84	-1.1348
2030.92	-6.24335
2036.99	-6.28758
2043.06	-2.99103
2049.14	-9.89351
2055.21	-0.513604
2061.28	-8.18086
2067.36	-7.25097
2073.43	0.215669
2079.5	-9.88909
2085.58	-2.81386
2091.65	-5.40068
2097.72	-6.68681
2100	-2.49195

File: Cu foil_top.txt
300	80.8615
306.073	78.4263
312.147	79.0793
318.22	69.9171
324.294	79.76
330.367	76.553
336.44	66.1737
342.514	66.9025
348.587	55.1563
354.66	68.6838
360.734	68.7128
366.807	59.4001
372.881	49.3325
378.954	47.7215
385.027	60.6577
391.101	53.0606
397.174	50.1735
403.248	50.6731
409.321	32.9272
415.394	45.8451
421.468	39.6529
427.541	35.2172
433.615	39.1487
439.688	31.3462
445.761	34.6796
451.835	41.9089
457.908	42.763
463.981	33.3611
470.055	29.1929
476.128	18.3277
482.202	23.8357
488.275	19.3843
494.348	12.24
500.422	10.1116
506.495	-2.67078
512.569	5.98304
518.642	3.65415
524.715	9.12613
530.789	3.21858
536.862	5.80905
542.935	1.94428
549.009	4.53102
555.082	4.73904
561.156	7.08233
567.229	5.21875
573.302	2.37463
579.376	7.25643
585.449	-0.544558
591.523	4.96818
597.596	-1.47057
603.669	10.7376
609.743	4.35472
615.816	6.97
621.89	10.4427
627.963	12.2025
634.036	17.8649
640.11	12.7287
646.183	13.7352
652.256	7.60541
658.33	17.1877
664.403	12.737
670.477	28.9924
676.55	11.2044
682.623	3.24057
688.697	7.43012
694.77	15.7786
700.844	13.0554
706.917	16.7857
712.99	22.8399
719.064	27.7582
725.137	23.4493
731.21	28.3779
737.284	39.35
743.357	22.261
749.431	30.7901
755.504	32.2806
761.577	31.9164
767.651	29.5191
773.724	34.2227
779.798	36.6646
785.871	42.0289
791.944	34.9986
798.018	41.5162
804.091	47.4512
810.164	44.8879
816.238	46.2871
822.311	55.321
828.385	42.4365
834.458	56.1995
840.531	62.8676
846.605	51.4973
852.678	56.8881
858.752	58.0757
864.825	49.0692
870.898	51.2515
876.972	29.9143
883.045	22.976
889.119	20.0184
895.192	18.7764
901.265	14.9819
907.339	13.5091
913.412	-1.9196
919.485	10.3816
925.559	7.60852
931.632	8.86291
937.706	2.70632
943.779	4.95157
949.852	8.26525
955.926	3.48241
961.999	0.569941
968.073	-8.75365
974.146	-15.6915
980.219	-25.0217
986.293	-12.1753
992.366	-22.1054
998.439	-25.6504
1004.51	-30.8215
1010.59	-27.4199
1016.66	-42.517
1022.73	-21.5788
1028.81	-22.5756
1034.88	-17.7632
1040.95	-15.0364
1047.03	-16.2927
1053.1	-19.7455
1059.17	-27.386
1065.25	-26.955
1071.32	-28.8099
1077.39	-29.2521
1083.47	-25.4907
1089.54	-25.271
1095.61	-24.2358
1101.69	-21.0946
1107.76	-12.2533
1113.83	-20.4235
1119.91	-5.1516
1125.98	-1.536
1132.05	1.64061
1138.13	1.08852
1144.2	21.2425
1150.27	18.8518
1156.35	32.2471
1162.42	43.0023
1168.49	48.9761
1174.57	33.2243
1180.64	31.9199
1186.71	41.3384
1192.79	37.6964
1198.86	59.0005
1204.93	59.4034
1211.01	77.1763
1217.08	87.6054
1223.15	90.236
1229.23	117.671
1235.3	129.704
1241.375	155.321
1247.45	171.829
1253.52	189.735
1259.6	222.692
1265.67	238.199
1271.74	316.498
1277.82	342.516
1283.89	381.561
1289.96	457.824
1296.04	507.898
1302.11	595.7
1308.18	685.752
1314.26	768.464
1320.33	876.472
1326.4	963.266
1332.48	1034.99
1338.55	1094.22
1344.62	1063.23
1350.7	1049.5
1356.77	971.435
1362.84	872.997
1368.92	782.263
1374.99	670.076
1381.06	561.543
1387.14	479.935
1393.21	380.126
1399.28	306.278
1405.36	272.511
1411.43	211.672
1417.5	172.425
1423.58	136.643
1429.65	111.746
1435.72	75.3573
1441.8	72.0471
1447.87	31.256
1453.94	13.1226
1460.02	30.8464
1466.09	19.0538
1472.16	9.65128
1478.24	13.1325
1484.31	41.6313
1490.38	45.7985
1496.46	56.278
1502.53	71.8802
1508.6	91.3088
1514.68	114.582
1520.75	145.945
1526.82	184.39
1532.9	206.147
1538.97	270.416
1545.04	360.745
1551.12	401.093
1557.19	512.13
1563.26	578.238
1569.34	724.593
1575.41	872.498
1581.48	1021.72
1587.56	1198.24
1593.63	1289.95
1599.7	1270.31
1605.78	1181.41
1611.85	1053.54
1617.92	892.189
1624	730.76
1630.07	571.368
1636.15	441.83
1642.22	325.001
1648.29	241.572
1654.37	167.444
1660.44	111.523
1666.51	78.0593
1672.59	54.1461
1678.66	21.1139
1684.73	21.9602
1690.81	14.5172
1696.88	2.0578
1702.95	4.22388
1709.03	-1.76164
1715.1	-3.96421
1721.17	5.05993
1727.25	8.60103
1733.32	5.36398
1739.39	9.81645
1745.47	-3.27893
1751.54	-1.07024
1757.61	-4.45774
1763.69	-6.31217
1769.76	-3.36465
1775.83	-5.16517
1781.91	-12.6356
1787.98	-0.347115
1794.05	6.58835
1800.13	0.230695
1806.2	-4.40985
1812.27	-8.22753
1818.35	-10.8758
1824.42	-12.5403
1830.49	-4.32694
1836.57	-2.64137
1842.64	-4.02028
1848.71	-4.32965
1854.79	-8.10077
1860.86	-5.07017
1866.93	0.837984
1873.01	-9.37069
1879.08	-8.52003
1885.15	-7.19163
1891.23	-6.02179
1897.3	7.24413
1903.37	-2.48525
1909.45	-3.7672
1915.52	-1.99004
1921.59	7.29089
1927.67	0.908691
1933.74	2.48012
1939.81	4.37187
1945.89	-4.80472
1951.96	-2.16222
1958.03	-5.39995
1964.11	-19.2269
1970.18	-4.1429
1976.25	-1.37863
1982.33	0.415421
1988.4	-7.48863
1994.47	-2.69862
2000.55	-4.24654
2006.62	-4.7027
2012.7	-4.58206
2018.77	-4.18074
2024.84	-8.21713
2030.92	-1.77341
2036.99	-9.20941
2043.06	-11.1488
2049.14	-5.09473
2055.21	-9.6205
2061.28	-4.6114
2067.36	-8.49055
2073.43	-11.0877
2079.5	-8.33298
2085.58	-4.01323
2091.65	-14.1191
2097.72	-5.9639
2100	0.466797