Folder: Graphs/Example Data/Raman/CNT - TIM/Raytheon/Cu foil/09-29-10

Note: README.md
# Graphs
A macOS app that manages the organization of data files and graphs them.

Licensed under the MIT licensing terms: https://opensource.org/licenses/MIT

Hildreth wrote the precursor to Graphs, then called GraphBase, during his Ph.D. to help manage the data he was collecting as part of his research on Metal-assisted Chemical Etching of Silicon.  He was becoming overwhelmed by the hundreds of data files he was collecting every week and was inspired by the Papers and iTunes applications on OS X (now macOS) to create an application that managed data.  GraphBase provided an easy template to create a parser, a simple UI to organize data into hiarchical folders, and leveraged the DataGraph framework (http://www.visualdatatools.com/DataGraph/Framework/) for graphing.  DataGraph (http://www.visualdatatools.com/DataGraph/) is an amazing 2D graphing application and you will need to purchase a DataGraph license from Visual Data Tools in order to use Graphs.

Graphs is a rewrite of GraphBase in Swift written by Connor and then re-written again by Hildreth that has been open sourced for use by all.  Please not that you will need a DataGraph license to create the graph templates used by the DataGraph framework underlying Graphs.  Hildreth plans to continue evolving this application.  The next plan improvements are: multithreading for import and parsing using the new Results type in Swift; and begin switching over to SwiftUI for the UI.  Long term, we hope to add support for data analysis and extraction.

# Overview
Graphs is a data management tool that allows you to store your raw data files in a text formate (CSV, tab delimited, etc.) and then have those files parsed and graphed when selected.  Graphs uses the DataGraph fromework 

To use Graphs, first you create an example graph, what we call a Graph Template, in DataGraph.  Format the graph the way you want it to look and make sure that the Data Columns are in the same order as the columns in your data.  Next, you  add your "Graph Template" to Graphs using either the Graph Template Inspector on the right side of Graphs using using the "+" sign on the bottom left of the application.  You can also drag-and-drop the file onto a folder in the Source List.  Once you add a Graph Template, you can assign it to be the default Graph Template for a folder and any sub-folders using the Folder Inspector.

The second step is to make a Paser using the Parser Inspector.  It might be helpful to have an example file already in Graphs (see Step 3) because you can use the Text Inspector to see what lines your Experimental Details, Header, and Data start at.  Add a Parse Template using the + sign in the Parse Inspector's table and give the Parse Template a name.  If your data has experimental details at the top, then select the checkbox and set the starting and ending lines for this information.  If your data has a Header, select the Header checkbox, give it starting and ending line numbers, and then select the type of s

File: 0 W_1.txt
300	40.8974
305.296	37.5196
310.591	34.7323
315.887	36.0486
321.183	33.877
326.478	29.6978
331.774	33.9745
337.07	36.0316
342.365	31.1623
347.661	26.1612
352.957	21.4742
358.252	23.0808
363.548	21.452
368.844	22.6001
374.139	25.8162
379.435	21.5832
384.731	20.1911
390.026	23.4119
395.322	18.674
400.618	24.3269
405.914	19.7646
411.209	18.8029
416.505	18.3232
421.801	23.6055
427.096	18.2639
432.392	21.8762
437.688	15.0934
442.983	6.22587
448.279	4.88202
453.575	9.28856
458.87	13.6227
464.166	16.5434
469.462	8.96161
474.757	6.58339
480.053	-0.197852
485.349	3.82607
490.644	3.10912
495.94	8.56482
501.236	5.32416
506.531	-3.03497
511.827	-2.54571
517.123	-4.17308
522.418	6.21655
527.714	3.47206
533.01	1.79664
538.305	-3.11611
543.601	-4.29547
548.897	-3.67867
554.192	-3.51059
559.488	-1.51457
564.784	-4.4722
570.079	-2.2007
575.375	-1.6273
580.671	-8.48155
585.966	0.220525
591.262	-4.62067
596.558	-6.76144
601.854	-1.91575
607.149	-2.84907
612.445	-6.46318
617.741	-0.505669
623.036	0.727782
628.332	-1.65521
633.628	-2.59685
638.923	1.33966
644.219	-0.33455
649.515	4.56631
654.81	-4.11342
660.106	-6.34507
665.402	3.52646
670.697	3.15729
675.993	-1.18692
681.289	-0.179875
686.584	-6.19649
691.88	-5.42346
697.176	-6.30956
702.471	1.96894
707.767	-6.12684
713.063	3.14431
718.358	0.222341
723.654	-2.64043
728.95	1.41225
734.245	4.53001
739.541	0.884808
744.837	0.657597
750.132	1.43034
755.428	3.88742
760.724	4.90619
766.019	4.62741
771.315	5.8896
776.611	9.51893
781.906	7.16172
787.202	-2.01436
792.498	3.84868
797.793	5.09129
803.089	5.92081
808.385	8.94509
813.68	7.94038
818.976	14.0076
824.272	9.8222
829.568	2.72052
834.863	10.8523
840.159	10.1818
845.455	4.15163
850.75	14.1789
856.046	6.95819
861.342	6.37363
866.637	12.241
871.933	8.75318
877.229	7.9692
882.524	4.92781
887.82	-5.40737
893.116	-0.340373
898.411	-1.70765
903.707	-6.54001
909.003	-3.26939
914.298	6.42895
919.594	-6.00237
924.89	-9.03943
930.185	-4.33784
935.481	-3.23775
940.777	-9.41757
946.072	-6.75454
951.368	-9.34262
956.664	3.74951
961.959	-9.11586
967.255	-4.95387
972.551	-13.469
977.846	-1.89623
983.142	-8.38282
988.438	-4.99853
993.733	-8.73646
999.029	-2.57806
1004.32	-2.90544
1009.62	-7.43888
1014.92	-0.102596
1020.21	-1.36972
1025.51	-2.66407
1030.8	-3.78225
1036.1	1.76791
1041.39	-0.118914
1046.69	4.58508
1051.99	5.40087
1057.28	4.34281
1062.58	-1.20425
1067.87	-4.77493
1073.17	-0.154135
1078.46	0.68095
1083.76	1.5614
1089.06	-3.32214
1094.35	-1.01549
1099.65	1.19441
1104.94	3.8226
1110.24	-0.368547
1115.53	9.29739
1120.83	12.2584
1126.13	14.4485
1131.42	6.86565
1136.72	11.0422
1142.01	9.8994
1147.31	15.4171
1152.6	24.7594
1157.9	32.2157
1163.2	36.8437
1168.49	35.2979
1173.79	40.3384
1179.08	29.9856
1184.38	26.6719
1189.67	34.2841
1194.97	35.8831
1200.26	34.9079
1205.56	47.2968
1210.86	33.6375
1216.15	58.4607
1221.45	55.4248
1226.74	68.8606
1232.04	62.6988
1237.33	67.7175
1242.63	75.5111
1247.93	88.3406
1253.22	107.61
1258.52	111.695
1263.81	114.544
1269.11	133.36
1274.4	161.17
1279.7	171.636
1285	192.317
1290.29	208.204
1295.59	228.898
1300.88	259.994
1306.18	280.932
1311.47	323.326
1316.77	342.196
1322.07	382.566
1327.36	412.723
1332.66	427.829
1337.95	441.841
1343.25	443.439
1348.54	429.796
1353.84	435.115
1359.14	414.5
1364.43	383.065
1369.73	364.286
1375.02	314.555
1380.32	282.067
1385.61	270.424
1390.91	228.802
1396.2	198.697
1401.5	161.24
1406.8	149.911
1412.09	113.169
1417.39	94.7577
1422.68	72.0525
1427.98	63.342
1433.27	44.061
1438.57	32.569
1443.87	32.2628
1449.16	23.9945
1454.46	6.70137
1459.75	11.2208
1465.05	-7.24883
1470.34	6.60652
1475.64	7.42278
1480.94	-4.69248
1486.23	3.76483
1491.53	8.63536
1496.82	9.97639
1502.12	6.42975
1507.41	30.6394
1512.71	33.3874
1518.01	40.9791
1523.3	59.9033
1528.6	85.9454
1533.89	96.6639
1539.19	102.959
1544.48	140.618
1549.78	151.334
1555.08	191.472
1560.37	242.768
1565.67	280.696
1570.96	338.762
1576.26	386.529
1581.55	435.883
1586.85	481.572
1592.14	504.06
1597.44	506.004
1602.74	494.065
1608.03	506.327
1613.33	462.423
1618.62	406.128
1623.92	336.91
1629.21	272.015
1634.51	202.059
1639.81	169.717
1645.1	135.083
1650.4	102.655
1655.69	64.6174
1660.99	47.2472
1666.28	37.6008
1671.58	30.0587
1676.88	19.4311
1682.17	9.71298
1687.47	-0.00430117
1692.76	-10.9886
1698.06	-3.78178
1703.35	-3.54247
1708.65	-9.4913
1713.95	-0.62647
1719.24	-3.92566
1724.54	-2.6423
1729.83	11.8328
1735.13	1.92279
1740.42	1.18551
1745.72	-7.43796
1751.02	4.08665
1756.31	-6.90276
1761.61	-9.25848
1766.9	0.514526
1772.2	1.69139
1777.49	5.0669
1782.79	4.54652
1788.08	4.70811
1793.38	2.49141
1798.68	4.22011
1800	2.84163

File: 60 W_1.txt
300	58.2382
306.533	66.3601
313.067	65.8735
319.6	68.2413
326.134	58.9958
332.667	63.667
339.201	62.8881
345.734	57.4123
352.267	56.43
358.801	63.7426
365.334	67.0458
371.868	53.1096
378.401	51.2523
384.935	62.4928
391.468	55.2649
398.002	55.2213
404.535	50.2566
411.068	52.8495
417.602	54.5843
424.135	46.3289
430.669	44.8406
437.202	43.5971
443.736	39.3861
450.269	37.808
456.802	41.0776
463.336	43.6014
469.869	33.5817
476.403	39.0408
482.936	30.1858
489.47	28.1744
496.003	19.6115
502.536	19.4344
509.07	16.3751
515.603	19.2132
522.137	17.2916
528.67	19.317
535.204	17.7958
541.737	8.30975
548.271	-0.967358
554.804	-2.1347
561.337	5.16958
567.871	6.21319
574.404	4.32395
580.938	11.56
587.471	7.77112
594.005	2.99944
600.538	-1.24351
607.071	13.5218
613.605	-1.4749
620.138	8.04969
626.672	6.16085
633.205	16.0861
639.739	12.3153
646.272	21.0161
652.806	14.1321
659.339	14.5427
665.872	9.66477
672.406	0.117905
678.939	2.35232
685.473	5.22583
692.006	9.22263
698.54	-1.96693
705.073	1.0091
711.606	-1.36637
718.14	9.90016
724.673	-1.77751
731.207	4.62312
737.74	12.0246
744.274	15.4246
750.807	8.39727
757.341	3.6445
763.874	10.9326
770.407	14.8028
776.941	19.2694
783.474	7.78056
790.008	6.05806
796.541	1.54647
803.075	9.30659
809.608	1.74654
816.141	5.24971
822.675	2.78269
829.208	12.594
835.742	4.44614
842.275	10.6933
848.809	7.37845
855.342	22.656
861.875	12.0791
868.409	8.09525
874.942	12.4237
881.476	7.65978
888.009	11.8345
894.543	17.2628
901.076	12.8146
907.61	-2.18306
914.143	3.36727
920.676	7.32808
927.21	-2.09853
933.743	7.25862
940.277	10.816
946.81	-3.85081
953.344	1.30527
959.877	4.04584
966.41	-2.545
972.944	15.3993
979.477	-2.20163
986.011	-9.1973
992.544	5.1534
999.078	-3.72818
1005.61	-5.29385
1012.14	4.11029
1018.68	-6.84371
1025.21	2.86472
1031.74	2.9679
1038.28	4.93198
1044.81	5.30284
1051.35	-0.84724
1057.88	5.50179
1064.41	1.40749
1070.95	-11.6294
1077.48	7.47389
1084.01	-7.78864
1090.55	-21.3991
1097.08	-9.12827
1103.61	-14.78
1110.15	-5.39877
1116.68	4.65266
1123.21	17.3504
1129.75	-3.25809
1136.28	-19.2454
1142.81	-8.67486
1149.35	-10.0364
1155.88	-10.142
1162.41	-5.88572
1168.95	-6.76657
1175.48	-18.2323
1182.01	-14.7223
1188.55	-18.6181
1195.08	-12.0119
1201.61	-6.27275
1208.15	-10.2223
1214.68	12.1704
1221.21	22.9224
1227.75	25.9693
1234.28	36.1143
1240.81	58.1904
1247.35	75.0118
1253.88	86.8338
1260.42	118.752
1266.95	133.862
1273.48	159.177
1280.02	197.73
1286.55	237.997
1293.08	299.105
1299.62	345.219
1306.15	426.448
1312.68	516.627
1319.22	655.145
1325.75	766.862
1332.28	931.61
1338.82	1121.74
1345.35	1272.13
1351.88	1380.35
1358.42	1354.02
1364.95	1229.96
1371.48	1059.9
1378.02	877.877
1384.55	703.973
1391.08	563.691
1397.62	448.881
1404.15	345.828
1410.68	288.532
1417.22	237.137
1423.75	156.373
1430.28	135.555
1436.82	87.2945
1443.35	59.8929
1449.88	53.3822
1456.42	18.2021
1462.95	15.9153
1469.48	-5.48167
1476.02	-4.84912
1482.55	-10.8793
1489.09	13.3506
1495.62	21.2275
1502.15	25.7368
1508.69	49.562
1515.22	60.1035
1521.75	73.8754
1528.29	109.493
1534.82	128.482
1541.35	171.097
1547.89	224.907
1554.42	288.616
1560.95	387.689
1567.49	459.651
1574.02	593.626
1580.55	743.315
1587.09	913.51
1593.62	1035.48
1600.15	1088.79
1606.69	1037.55
1613.22	980.168
1619.75	934.512
1626.29	862.919
1632.82	674.869
1639.35	442.88
1645.89	276.409
1652.42	190.337
1658.95	118.145
1665.49	79.9482
1672.02	45.2934
1678.55	30.6237
1685.09	8.92635
1691.62	16.2066
1698.16	9.13097
1704.69	-7.856
1711.22	-8.49449
1717.76	-7.8217
1724.29	-4.60682
1730.82	-19.6206
1737.36	-4.87616
1743.89	-19.3418
1750.42	-13.6926
1756.96	-6.16229
1763.49	-1.1041
1770.02	0.876704
1776.56	-1.37374
1783.09	-1.97903
1789.62	-7.04895
1796.16	-2.77529
1802.69	-1.53881
1809.22	-8.05003
1815.76	-4.65317
1822.29	-2.72623
1828.82	1.61025
1835.36	3.20011
1841.89	8.98048
1848.42	-3.27503
1854.96	-1.1448
1861.49	0.0315759
1868.02	-2.82133
1874.56	8.28633
1881.09	-0.64547
1887.62	-11.3472
1894.16	-1.13416
1900.69	-13.618
1907.23	-3.25125
1913.76	-9.69454
1920.29	-6.38273
1926.83	-14.298
1933.36	6.07883
1939.89	1.87253
1946.43	-4.1557
1952.96	-2.04373
1959.49	-2.54538
1966.03	-5.93536
1972.56	2.13093
1979.09	3.41675
1985.63	-3.56527
1992.16	2.49908
1998.69	3.72616
2000	-0.962725

File: 70 W_1.txt
300	49.6609
306.533	48.4397
313.067	47.1091
319.6	52.0272
326.134	46.5606
332.667	52.9698
339.201	49.3373
345.734	39.3781
352.267	40.879
358.801	50.1996
365.334	44.5253
371.868	42.7317
378.401	36.7705
384.935	40.9966
391.468	25.7493
398.002	41.9459
404.535	32.4236
411.068	30.0261
417.602	30.0198
424.135	24.2339
430.669	30.3173
437.202	29.0537
443.736	34.1589
450.269	28.2428
456.802	30.7387
463.336	15.883
469.869	22.0126
476.403	13.4123
482.936	3.65922
489.47	14.9321
496.003	0.158705
502.536	2.3078
509.07	0.412799
515.603	5.79473
522.137	2.4894
528.67	-3.32654
535.204	4.37137
541.737	-10.4568
548.271	2.00138
554.804	3.23477
561.337	-13.1868
567.871	1.89118
574.404	-2.88746
580.938	-3.58247
587.471	-2.52249
594.005	-13.1473
600.538	-5.23073
607.071	2.53816
613.605	-6.09865
620.138	-3.69049
626.672	2.07646
633.205	-0.731311
639.739	5.58521
646.272	6.74239
652.806	-2.78455
659.339	1.63059
665.872	-3.46271
672.406	-2.94979
678.939	-1.55769
685.473	-3.98889
692.006	5.38754
698.54	-0.98055
705.073	-1.59798
711.606	0.717562
718.14	4.06854
724.673	3.22138
731.207	8.07388
737.74	6.05761
744.274	-5.66737
750.807	3.05519
757.341	-1.61087
763.874	6.6991
770.407	0.90465
776.941	1.43026
783.474	12.2568
790.008	-0.388229
796.541	0.80871
803.075	-2.45797
809.608	6.62332
816.141	11.4391
822.675	4.40769
829.208	16.1709
835.742	4.41039
842.275	5.44851
848.809	10.0772
855.342	19.45
861.875	8.7278
868.409	13.4
874.942	8.95306
881.476	10.4038
888.009	5.34485
894.543	8.38175
901.076	5.27642
907.61	8.80783
914.143	3.1215
920.676	5.16065
927.21	9.48814
933.743	12.8954
940.277	15.6307
946.81	13.4821
953.344	6.01027
959.877	6.69634
966.41	2.12719
972.944	0.98375
979.477	14.338
986.011	-2.85677
992.544	3.23942
999.078	-0.0741366
1005.61	3.25184
1012.14	1.69139
1018.68	0.172108
1025.21	12.3502
1031.74	2.27218
1038.28	3.02756
1044.81	13.643
1051.35	6.78517
1057.88	10.0346
1064.41	16.0846
1070.95	12.3106
1077.48	-5.12388
1084.01	-0.702797
1090.55	-6.95617
1097.08	0.853528
1103.61	-6.39048
1110.15	-0.291397
1116.68	7.99891
1123.21	-8.5282
1129.75	3.89325
1136.28	-0.0537079
1142.81	-6.03634
1149.35	11.3531
1155.88	-6.3099
1162.41	10.7486
1168.95	2.50785
1175.48	-5.85489
1182.01	8.0956
1188.55	6.70273
1195.08	13.8495
1201.61	18.3594
1208.15	18.8476
1214.68	21.2787
1221.21	22.9421
1227.75	40.4358
1234.28	42.7168
1240.81	63.5172
1247.35	70.2117
1253.88	101.52
1260.42	105.93
1266.95	138.163
1273.48	162.053
1280.02	188.681
1286.55	221.845
1293.08	273.147
1299.62	332.497
1306.15	384.17
1312.68	449.312
1319.22	535.977
1325.75	646.375
1332.28	754.994
1338.82	870.818
1345.35	939.676
1351.88	993.852
1358.42	954.159
1364.95	850.825
1371.48	752.475
1378.02	645.477
1384.55	522.445
1391.08	436.445
1397.62	358.777
1404.15	283.348
1410.68	241.673
1417.22	178.132
1423.75	139.603
1430.28	114.136
1436.82	84.71
1443.35	58.8798
1449.88	47.671
1456.42	30.9212
1462.95	18.9878
1469.48	5.19543
1476.02	0.404986
1482.55	-0.906032
1489.09	7.53913
1495.62	-10.6564
1502.15	7.3155
1508.69	29.8661
1515.22	38.6388
1521.75	78.1852
1528.29	90.2114
1534.82	112.333
1541.35	150.991
1547.89	196.718
1554.42	243.08
1560.95	322.141
1567.49	394.136
1574.02	497.516
1580.55	630.406
1587.09	730.393
1593.62	794.411
1600.15	797.976
1606.69	786.194
1613.22	755.301
1619.75	692.717
1626.29	555.717
1632.82	422.41
1639.35	290.872
1645.89	177.98
1652.42	118.611
1658.95	80.1679
1665.49	40.601
1672.02	11.6618
1678.55	14.2134
1685.09	19.2622
1691.62	-4.65679
1698.16	-3.52497
1704.69	9.43565
1711.22	-4.14353
1717.76	2.42881
1724.29	2.41021
1730.82	1.63081
1737.36	1.12199
1743.89	-1.12704
1750.42	2.54116
1756.96	-0.396787
1763.49	8.84256
1770.02	4.74786
1776.56	4.06225
1783.09	7.61024
1789.62	6.98858
1796.16	-0.802925
1802.69	-4.38422
1809.22	7.21447
1815.76	-0.308605
1822.29	8.58368
1828.82	0.595766
1835.36	0.373611
1841.89	1.7113
1848.42	10.5772
1854.96	-3.10729
1861.49	8.24096
1868.02	13.2148
1874.56	7.8564
1881.09	-3.98462
1887.62	-8.5345
1894.16	2.17117
1900.69	-4.71615
1907.23	11.1621
1913.76	1.44461
1920.29	-1.76137
1926.83	3.32509
1933.36	0.323847
1939.89	6.88256
1946.43	-1.90464
1952.96	20.3408
1959.49	14.5153
1966.03	13.0618
1972.56	7.3331
1979.09	20.1867
1985.63	17.2391
1992.16	13.5833
1998.69	19.9215
2000	13.1148