Folder: Graphs/Example Data/Raman/CNT - TIM/Raytheon/FeSi adhesion/Test 1 - 12-7-09

Note: README.md
# Graphs
A macOS app that manages the organization of data files and graphs them.

Licensed under the MIT licensing terms: https://opensource.org/licenses/MIT

Hildreth wrote the precursor to Graphs, then called GraphBase, during his Ph.D. to help manage the data he was collecting as part of his research on Metal-assisted Chemical Etching of Silicon.  He was becoming overwhelmed by the hundreds of data files he was collecting every week and was inspired by the Papers and iTunes applications on OS X (now macOS) to create an application that managed data.  GraphBase provided an easy template to create a parser, a simple UI to organize data into hiarchical folders, and leveraged the DataGraph framework (http://www.visualdatatools.com/DataGraph/Framework/) for graphing.  DataGraph (http://www.visualdatatools.com/DataGraph/) is an amazing 2D graphing application and you will need to purchase a DataGraph license from Visual Data Tools in order to use Graphs.

Graphs is a rewrite of GraphBase in Swift written by Connor and then re-written again by Hildreth that has been open sourced for use by all.  Please not that you will need a DataGraph license to create the graph templates used by the DataGraph framework underlying Graphs.  Hildreth plans to continue evolving this application.  The next plan improvements are: multithreading for import and parsing using the new Results type in Swift; and begin switching over to SwiftUI for the UI.  Long term, we hope to add support for data analysis and extraction.

# Overview
Graphs is a data management tool that allows you to store your raw data files in a text formate (CSV, tab delimited, etc.) and then have those files parsed and graphed when selected.  Graphs uses the DataGraph fromework 

To use Graphs, first you create an example graph, what we call a Graph Template, in DataGraph.  Format the graph the way you want it to look and make sure that the Data Columns are in the same order as the columns in your data.  Next, you  add your "Graph Template" to Graphs using either the Graph Template Inspector on the right side of Graphs using using the "+" sign on the bottom left of the application.  You can also drag-and-drop the file onto a folder in the Source List.  Once you add a Graph Template, you can assign it to be the default Graph Template for a folder and any sub-folders using the Folder Inspector.

The second step is to make a Paser using the Parser Inspector.  It might be helpful to have an example file already in Graphs (see Step 3) because you can use the Text Inspector to see what lines your Experimental Details, Header, and Data start at.  Add a Parse Template using the + sign in the Parse Inspector's table and give the Parse Template a name.  If your data has experimental details at the top, then select the checkbox and set the starting and ending lines for this information.  If your data has a Header, select the Header checkbox, give it starting and ending line numbers, and then select the type of s

File: CNT spectrum 1.txt
200	89.1283
209.927	101.836
219.853	94.833
229.78	103.092
239.706	108.845
249.633	103.84
259.559	104.411
269.486	96.7797
279.413	98.9525
289.339	95.4483
299.266	91.4981
309.192	91.0929
319.119	89.8331
329.045	83.0768
338.972	85.1078
348.898	75.6107
358.825	79.6995
368.752	80.0338
378.678	77.8194
388.605	77.6256
398.531	80.1488
408.458	79.9659
418.384	77.6092
428.311	74.4114
438.238	72.0258
448.164	69.1909
458.091	76.4739
468.017	68.4047
477.944	214.779
487.87	61.3978
497.797	59.734
507.723	59.7691
517.65	58.3398
527.577	57.3028
537.503	62.3355
547.43	60.7263
557.356	56.5124
567.283	63.9446
577.209	57.1355
587.136	59.015
597.063	57.5481
606.989	65.2463
616.916	66.3104
626.842	64.5194
636.769	59.4038
646.695	59.8387
656.622	64.1807
666.549	67.5058
676.475	65.0355
686.402	63.9218
696.328	70.5457
706.255	64.1633
716.181	62.2417
726.108	63.4292
736.034	72.4301
745.961	74.8549
755.888	78.4858
765.814	78.11
775.741	71.7337
785.667	80.2322
795.594	76.9017
805.52	83.136
815.447	82.136
825.374	86.3293
835.3	83.7154
845.227	83.348
855.153	82.2713
865.08	85.9264
875.006	79.6868
884.933	74.2705
894.859	72.851
904.786	75.6286
914.713	67.6986
924.639	69.2984
934.566	67.0602
944.492	68.6551
954.419	71.5823
964.345	67.271
974.272	71.9768
984.199	70.8614
994.125	74.2092
1004.05	73.3044
1013.98	77.8099
1023.9	82.636
1033.83	82.9734
1043.76	83.2044
1053.68	87.34
1063.61	99.2479
1073.54	92.5757
1083.46	97.49
1093.39	101.495
1103.32	101.629
1113.24	103.613
1123.17	102.382
1133.1	105.86
1143.02	102.364
1152.95	107.833
1162.88	111.666
1172.8	113.571
1182.73	111.665
1192.66	123.666
1202.58	124.434
1212.51	134.202
1222.44	132.457
1232.36	149.993
1242.29	156.419
1252.22	172.452
1262.14	193.789
1272.07	213.306
1282	243.122
1291.92	287.5
1301.85	354.627
1311.78	477.976
1321.7	589.825
1331.63	677.155
1341.55	697.923
1351.48	588.551
1361.41	465.03
1371.33	381.964
1381.26	306.022
1391.19	259.007
1401.11	221.993
1411.04	203.293
1420.97	189.361
1430.89	194.105
1440.82	182.323
1450.75	173.359
1460.67	173.004
1470.6	185.334
1480.53	181.014
1490.45	196.911
1500.38	192.66
1510.31	197.118
1520.23	225.976
1530.16	264.203
1540.09	339.188
1550.01	455.438
1559.94	572.707
1569.87	669.851
1579.79	651.328
1589.72	564.623
1599.65	511.942
1609.57	448.251
1619.5	331.76
1629.43	228.842
1639.35	170.157
1649.28	131.368
1659.2	100.337
1669.13	89.4012
1679.06	80.5959
1688.98	71.1228
1698.91	68.2877
1708.84	63.3966
1718.76	62.917
1728.69	61.3202
1738.62	60.1273
1748.54	61.7571
1758.47	58.3086
1768.4	61.3171
1778.32	56.0908
1788.25	49.3373
1798.18	58.4531
1808.1	53.6405
1818.03	49.4568
1827.96	54.3285
1837.88	53.7107
1847.81	51.632
1857.74	55.0266
1867.66	52.3151
1877.59	57.1482
1887.52	54.8438
1897.44	48.061
1907.37	49.3999
1917.3	47.8196
1927.22	50.488
1937.15	50.25
1947.08	50.5791
1957	52.3942
1966.93	49.64
1976.85	49.107
1986.78	52.6122
1996.71	55.0567
2006.63	49.4476
2016.56	49.9056
2026.49	49.3064
2036.41	53.0181
2046.34	48.9598
2056.27	46.6918
2066.19	50.8765
2076.12	46.7384
2086.05	51.1205
2095.97	48.4143
2105.9	50.9993
2115.83	52.25
2125.75	48.5941
2135.68	50.3158
2145.61	50.6845
2155.53	52.265
2165.46	47.9386
2175.39	49.8926
2185.31	50.4951
2195.24	48.9355
2205.17	48.6364
2215.09	48.5
2225.02	50.3119
2234.95	50.9282
2244.87	56.535
2254.8	48.0973
2264.73	55.2619
2274.65	56.8412
2284.58	51.7376
2294.5	49.5345
2304.43	53.6341
2314.36	56.502
2324.28	60.0168
2334.21	55.2473
2344.14	57.3913
2354.06	55.2547
2363.99	64.3179
2373.92	64.8818
2383.84	63.6837
2393.77	66.9756
2403.7	74.25
2413.62	85.9672
2423.55	82.9126
2433.48	83.6874
2443.4	87.4593
2453.33	83.6971
2463.26	80.5087
2473.18	78.9792
2483.11	86.1746
2493.04	77.9182
2502.96	80.133
2512.89	91.6073
2522.82	90.4117
2532.74	90.2181
2542.67	98.4658
2552.6	96.2646
2562.52	116.161
2572.45	124.572
2582.38	138.088
2592.3	148.134
2602.23	172.031
2612.16	191.953
2622.08	220.935
2632.01	263.336
2641.93	320.349
2651.86	359.985
2661.79	383.16
2671.71	378.755
2681.64	360.844
2691.57	331.581
2701.49	276.376
2711.42	244.643
2721.35	207.272
2731.27	173.447
2741.2	156.313
2751.13	139.095
2761.05	130.517
2770.98	116.381
2780.91	112.812
2790.83	107.474
2800.76	103.125
2810.69	105.356
2820.61	103.943
2830.54	100.555
2840.47	91.5447
2850.39	100.832
2860.32	99.1758
2870.25	105.309
2880.17	111.52
2890.1	109.81
2900.03	115.016
2909.95	121.419
2919.88	123.901
2929.8	108.299
2939.73	112.669
2949.66	110.264
2959.58	100.93
2969.51	90.1874
2979.44	86.1033
2989.36	79.3007
2999.29	73.3758
3000	72.9846