Folder: Graphs/Example Data/Raman/CNT - TIM/Raytheon/FeSi adhesion/Test 6

Note: README.md
# Graphs
A macOS app that manages the organization of data files and graphs them.

Licensed under the MIT licensing terms: https://opensource.org/licenses/MIT

Hildreth wrote the precursor to Graphs, then called GraphBase, during his Ph.D. to help manage the data he was collecting as part of his research on Metal-assisted Chemical Etching of Silicon.  He was becoming overwhelmed by the hundreds of data files he was collecting every week and was inspired by the Papers and iTunes applications on OS X (now macOS) to create an application that managed data.  GraphBase provided an easy template to create a parser, a simple UI to organize data into hiarchical folders, and leveraged the DataGraph framework (http://www.visualdatatools.com/DataGraph/Framework/) for graphing.  DataGraph (http://www.visualdatatools.com/DataGraph/) is an amazing 2D graphing application and you will need to purchase a DataGraph license from Visual Data Tools in order to use Graphs.

Graphs is a rewrite of GraphBase in Swift written by Connor and then re-written again by Hildreth that has been open sourced for use by all.  Please not that you will need a DataGraph license to create the graph templates used by the DataGraph framework underlying Graphs.  Hildreth plans to continue evolving this application.  The next plan improvements are: multithreading for import and parsing using the new Results type in Swift; and begin switching over to SwiftUI for the UI.  Long term, we hope to add support for data analysis and extraction.

# Overview
Graphs is a data management tool that allows you to store your raw data files in a text formate (CSV, tab delimited, etc.) and then have those files parsed and graphed when selected.  Graphs uses the DataGraph fromework 

To use Graphs, first you create an example graph, what we call a Graph Template, in DataGraph.  Format the graph the way you want it to look and make sure that the Data Columns are in the same order as the columns in your data.  Next, you  add your "Graph Template" to Graphs using either the Graph Template Inspector on the right side of Graphs using using the "+" sign on the bottom left of the application.  You can also drag-and-drop the file onto a folder in the Source List.  Once you add a Graph Template, you can assign it to be the default Graph Template for a folder and any sub-folders using the Folder Inspector.

The second step is to make a Paser using the Parser Inspector.  It might be helpful to have an example file already in Graphs (see Step 3) because you can use the Text Inspector to see what lines your Experimental Details, Header, and Data start at.  Add a Parse Template using the + sign in the Parse Inspector's table and give the Parse Template a name.  If your data has experimental details at the top, then select the checkbox and set the starting and ending lines for this information.  If your data has a Header, select the Header checkbox, give it starting and ending line numbers, and then select the type of s

File: FeSi2-T6b-0Al-hSi - aligned region - _3.txt
200	291.98
206.159	297.324
212.318	304.924
218.477	310.29
224.636	317.361
230.796	316.701
236.955	317.698
243.114	318.216
249.273	327.195
255.432	328.783
261.591	333.266
267.75	329.985
273.909	324.824
280.068	318.71
286.228	299.58
292.387	332.816
298.546	310.768
304.705	302.834
310.864	276.807
317.023	275.949
323.182	273.311
329.341	255.184
335.5	261.494
341.66	256.68
347.819	253.3
353.978	262.435
360.137	250.768
366.296	246.502
372.455	239.619
378.614	245.039
384.773	237.322
390.932	229.941
397.092	250.382
403.251	247.473
409.41	236.015
415.569	226.68
421.728	236.108
427.887	240.574
434.046	235.965
440.205	224.875
446.364	228.601
452.524	215.466
458.683	213.376
464.842	211.856
471.001	213.113
477.16	206.382
483.319	198.642
489.478	194.259
495.637	191.715
501.796	208.682
507.956	218.246
514.115	297.856
520.274	1363.76
526.433	489.196
532.592	246.537
538.751	213.85
544.91	197.339
551.069	184.789
557.228	182.488
563.388	182.583
569.547	175.503
575.706	191.888
581.865	189.815
588.024	192.039
594.183	185.535
600.342	191.808
606.501	187.143
612.66	192.142
618.82	189.726
624.979	188.297
631.138	191.07
637.297	194.954
643.456	199.763
649.615	201.79
655.774	200.25
661.933	201.958
668.092	201.462
674.252	211.236
680.411	215.083
686.57	204.617
692.729	214.666
698.888	210.994
705.047	215.606
711.206	216.696
717.365	212.254
723.524	216.845
729.683	224.498
735.843	232.924
742.002	224.984
748.161	241.328
754.32	237.17
760.479	239.749
766.638	234.7
772.797	236.391
778.956	259.848
785.115	248.976
791.275	245.178
797.434	268.791
803.593	266.093
809.752	266.595
815.911	264.611
822.07	269.425
828.229	275.924
834.388	271.755
840.547	285.257
846.707	296.798
852.866	292.578
859.025	284.324
865.184	279.183
871.343	270.319
877.502	259.623
883.661	261.66
889.82	224.425
895.979	233.001
902.139	217.333
908.298	214.358
914.457	218.515
920.616	215.292
926.775	241.562
932.934	219.808
939.093	235.175
945.252	243.243
951.411	247.08
957.571	246.279
963.73	244.86
969.889	242.728
976.048	236.636
982.207	246.437
988.366	243.15
994.525	236.093
1000.68	222.773
1006.84	229.387
1013	235.284
1019.16	234.442
1025.32	234.006
1031.48	238.828
1037.64	244.5
1043.8	243.464
1049.96	256.882
1056.12	247.983
1062.28	258.323
1068.43	264.556
1074.59	266.297
1080.75	264.212
1086.91	284.332
1093.07	295.363
1099.23	295.745
1105.39	300.509
1111.55	292.874
1117.71	307.532
1123.87	311.439
1130.03	312.962
1136.18	314.799
1142.34	308.113
1148.5	315.934
1154.66	323.615
1160.82	332.81
1166.98	337.287
1173.14	340.223
1179.3	355.861
1185.46	362.395
1191.62	376.273
1197.78	370.311
1203.93	380.551
1210.09	401.262
1216.25	410.025
1222.41	432.783
1228.57	446.512
1234.73	461.587
1240.89	488.79
1247.05	503.452
1253.21	538.077
1259.37	545.128
1265.53	611.271
1271.69	645.057
1277.84	699.292
1284	759.212
1290.16	818.133
1296.32	948.114
1302.48	1050.93
1308.64	1189.92
1314.8	1410.37
1320.96	1657.61
1327.12	1942.85
1333.28	2237.42
1339.44	2403.35
1345.59	2469.85
1351.75	2326.97
1357.91	2086.91
1364.07	1806.66
1370.23	1528.39
1376.39	1336.27
1382.55	1120.07
1388.71	1013.48
1394.87	864.504
1401.03	795.907
1407.19	740.879
1413.34	692.605
1419.5	636.642
1425.66	638.203
1431.82	586.11
1437.98	595.522
1444.14	568.54
1450.3	562.664
1456.46	579.802
1462.62	569.948
1468.78	580.236
1474.94	569.471
1481.09	573.258
1487.25	580.475
1493.41	585.236
1499.57	591.856
1505.73	607.915
1511.89	617.103
1518.05	660.105
1524.21	690.418
1530.37	745.143
1536.53	819.753
1542.69	953.35
1548.85	1106.87
1555	1346.5
1561.16	1609.18
1567.32	1895.63
1573.48	2153.22
1579.64	2274.69
1585.8	2250.46
1591.96	2125.35
1598.12	1996.51
1604.28	1893.83
1610.44	1766.5
1616.6	1613.73
1622.75	1400.62
1628.91	1101.73
1635.07	858.159
1641.23	673.514
1647.39	541.201
1653.55	438.775
1659.71	386.472
1665.87	315.608
1672.03	289.571
1678.19	264.831
1684.35	242.832
1690.5	227.761
1696.66	223.362
1702.82	205.171
1708.98	198.632
1715.14	190.631
1721.3	188.837
1727.46	183.026
1733.62	172.226
1739.78	166.945
1745.94	164.548
1752.1	160.13
1758.25	166.335
1764.41	152.07
1770.57	159.116
1776.73	157.143
1782.89	159.305
1789.05	157.69
1795.21	151.511
1801.37	155.766
1807.53	151.448
1813.69	155.748
1819.85	153.294
1826.01	150.736
1832.16	149.814
1838.32	140.855
1844.48	159.191
1850.64	143.855
1856.8	149.199
1862.96	156.578
1869.12	157.424
1875.28	145.719
1881.44	146.961
1887.6	148.563
1893.76	152.632
1899.91	148.417
1906.07	146.786
1912.23	144.732
1918.39	134.389
1924.55	143.28
1930.71	139.958
1936.87	145.722
1943.03	145.336
1949.19	141.842
1955.35	138.88
1961.51	138.508
1967.66	140.213
1973.82	138.408
1979.98	132.446
1986.14	146.525
1992.3	143.291
1998.46	137.969
2000	142.966

File: FeSi2-T6b-0Al-hSi - NOT aligned region - _4.txt
200	339.645
206.159	367.68
212.318	442.425
218.477	427.947
224.636	606.972
230.796	864.825
236.955	644.904
243.114	453.588
249.273	450.961
255.432	420.116
261.591	440.289
267.75	487.086
273.909	473.447
280.068	432.346
286.228	506.655
292.387	448.691
298.546	436.789
304.705	496.318
310.864	424.669
317.023	403.953
323.182	370.822
329.341	372.225
335.5	355.211
341.66	351.912
347.819	335.575
353.978	337.882
360.137	325.852
366.296	319.008
372.455	314.768
378.614	324.943
384.773	310.421
390.932	311.626
397.092	300.478
403.251	301.47
409.41	308.778
415.569	296.895
421.728	301.07
427.887	300.56
434.046	299.743
440.205	278.654
446.364	278.087
452.524	274.311
458.683	245.41
464.842	261.181
471.001	265.201
477.16	255.1
483.319	258.666
489.478	271.555
495.637	293.384
501.796	326.631
507.956	471.528
514.115	1079.53
520.274	10112.4
526.433	2861.95
532.592	770.906
538.751	482.73
544.91	367.522
551.069	328.465
557.228	295.309
563.388	257.402
569.547	260.217
575.706	255.234
581.865	242.939
588.024	241.69
594.183	241.851
600.342	245.951
606.501	241.028
612.66	259.068
618.82	268.166
624.979	261.227
631.138	254.826
637.297	245.635
643.456	255.225
649.615	259.167
655.774	268.43
661.933	273.39
668.092	275.729
674.252	269.166
680.411	272.398
686.57	262.933
692.729	254.127
698.888	246.127
705.047	249.452
711.206	242.402
717.365	249.279
723.524	261.626
729.683	264.025
735.843	257.124
742.002	267.082
748.161	273.574
754.32	281.75
760.479	282.74
766.638	290.195
772.797	287.948
778.956	286.967
785.115	295.141
791.275	306.113
797.434	289.459
803.593	300.551
809.752	318.293
815.911	321.992
822.07	314.579
828.229	325.528
834.388	320.743
840.547	331.38
846.707	326.695
852.866	326.617
859.025	329.015
865.184	311.861
871.343	306.223
877.502	296.666
883.661	296.401
889.82	295.038
895.979	273.009
902.139	265.783
908.298	273.046
914.457	265.796
920.616	261.242
926.775	287.911
932.934	364.111
939.093	459.833
945.252	515.67
951.411	521.588
957.571	489.334
963.73	500.248
969.889	497.19
976.048	521.56
982.207	508.033
988.366	479.507
994.525	382.182
1000.68	333.84
1006.84	305.458
1013	289.78
1019.16	285.267
1025.32	273.905
1031.48	277.751
1037.64	262.417
1043.8	269.882
1049.96	273.218
1056.12	269.553
1062.28	276.731
1068.43	269.611
1074.59	271.453
1080.75	276.825
1086.91	291.405
1093.07	287.056
1099.23	292.02
1105.39	310.433
1111.55	300.762
1117.71	304.881
1123.87	334.557
1130.03	314.872
1136.18	334.363
1142.34	332.113
1148.5	345.837
1154.66	367.488
1160.82	372.332
1166.98	381.849
1173.14	399.503
1179.3	404.865
1185.46	432.471
1191.62	439.813
1197.78	436.156
1203.93	466.51
1210.09	487.139
1216.25	487.785
1222.41	523.998
1228.57	531.735
1234.73	553.935
1240.89	569.429
1247.05	602.567
1253.21	650.372
1259.37	683.415
1265.53	722.793
1271.69	738.322
1277.84	816.623
1284	879.499
1290.16	947.763
1296.32	1052.97
1302.48	1182.03
1308.64	1316.9
1314.8	1436.91
1320.96	1704.39
1327.12	1924.28
1333.28	2160.41
1339.44	2370.34
1345.59	2517.75
1351.75	2555.32
1357.91	2377.18
1364.07	2161.98
1370.23	1901.52
1376.39	1641.48
1382.55	1453.51
1388.71	1249.45
1394.87	1127.27
1401.03	985.596
1407.19	917.997
1413.34	861.415
1419.5	800.103
1425.66	747.601
1431.82	737.284
1437.98	687.09
1444.14	695.635
1450.3	686.273
1456.46	694.405
1462.62	692.967
1468.78	706.105
1474.94	708.019
1481.09	691.144
1487.25	732.478
1493.41	732.483
1499.57	740.268
1505.73	753.59
1511.89	772.553
1518.05	786.963
1524.21	798.629
1530.37	850.177
1536.53	908.522
1542.69	977.656
1548.85	1081.2
1555	1196.45
1561.16	1324.09
1567.32	1520.56
1573.48	1807.91
1579.64	2135.12
1585.8	2428.45
1591.96	2625.61
1598.12	2472.31
1604.28	2304.63
1610.44	2166.92
1616.6	1941.36
1622.75	1723.1
1628.91	1396.51
1635.07	1102.42
1641.23	866.147
1647.39	685.164
1653.55	555.316
1659.71	446.261
1665.87	375.773
1672.03	331.353
1678.19	301.75
1684.35	277.436
1690.5	251.36
1696.66	248.261
1702.82	233.621
1708.98	210.819
1715.14	213.166
1721.3	208.345
1727.46	189.522
1733.62	191.527
1739.78	181.917
1745.94	186.926
1752.1	179.737
1758.25	176.038
1764.41	170.023
1770.57	160.056
1776.73	163.209
1782.89	157.658
1789.05	165.044
1795.21	151.968
1801.37	150.08
1807.53	150.186
1813.69	153.974
1819.85	147.64
1826.01	144.322
1832.16	141.72
1838.32	135.969
1844.48	139.246
1850.64	141.896
1856.8	133.7
1862.96	139.188
1869.12	138.936
1875.28	139.532
1881.44	143.278
1887.6	147.687
1893.76	139.829
1899.91	142.887
1906.07	148.403
1912.23	169.285
1918.39	185.327
1924.55	170.813
1930.71	174.636
1936.87	173.542
1943.03	162.727
1949.19	160.707
1955.35	149.831
1961.51	154.713
1967.66	150.587
1973.82	133.696
1979.98	149.364
1986.14	142.637
1992.3	137.488
1998.46	137.708
2000	136.66

File: FeSi2-T6c-0Al-hSi - aligned region -_1.txt
100	75.1463
110.002	84.1128
120.005	66.4976
130.007	65.4677
140.01	68.1944
150.012	50.3512
160.015	49.5738
170.017	54.257
180.02	52.27
190.022	48.5307
200.025	50.2062
210.027	52.482
220.03	49.1321
230.032	54.1822
240.034	51.9179
250.037	51.401
260.039	59.857
270.042	157.224
280.044	52.031
290.047	54.1292
300.049	48.8492
310.052	46.2389
320.054	42.7409
330.057	42.1264
340.059	45.255
350.062	42.6276
360.064	44.5487
370.067	37.9182
380.069	40.4549
390.071	40.6132
400.074	40.9398
410.076	37.5186
420.079	41.8819
430.081	42.9689
440.084	36.6136
450.086	35.7479
460.089	37.235
470.091	34.7862
480.094	34.3375
490.096	32.4656
500.099	35.8967
510.101	33.2574
520.103	36.2797
530.106	28.7345
540.108	29.1021
550.111	31.7874
560.113	32.0996
570.116	36.1167
580.118	30.9231
590.121	28.7473
600.123	37.4492
610.126	31.6088
620.128	31.1773
630.131	36.1959
640.133	35.4623
650.135	34.4872
660.138	34.1099
670.14	37.0151
680.143	35.6319
690.145	36.1117
700.148	34.1055
710.15	35.5816
720.153	36.9851
730.155	36.5016
740.158	37.0334
750.16	42.0163
760.163	39.8563
770.165	44.6015
780.168	41.0311
790.17	39.2451
800.172	45.5193
810.175	44.1642
820.177	43.7168
830.18	48.4875
840.182	49.1003
850.185	51.5843
860.187	48.4809
870.19	41.8293
880.192	41.2527
890.195	40.5495
900.197	37.8658
910.2	33.9141
920.202	37.8363
930.204	34.6628
940.207	32.7852
950.209	34.244
960.212	34.4496
970.214	31.6198
980.217	32.3433
990.219	32.1187
1000.22	32.7212
1010.22	39.939
1020.23	37.173
1030.23	41.5818
1040.23	35.5769
1050.23	42.3199
1060.24	45.1205
1070.24	36.0211
1080.24	41.9003
1090.24	45.303
1100.25	42.9165
1110.25	45.5765
1120.25	40.4171
1130.25	39.6366
1140.26	43.5387
1150.26	44.7328
1160.26	46.4289
1170.26	48.1922
1180.27	51.0281
1190.27	51.1891
1200.27	56.0214
1210.27	58.5441
1220.28	59.9084
1230.28	60.5976
1240.28	68.5784
1250.28	69.8952
1260.29	76.8391
1270.29	91.9182
1280.29	93.6841
1290.29	116.798
1300.3	128.461
1310.3	160.019
1320.3	200.391
1330.3	258.999
1340.31	278.279
1350.31	257.794
1360.31	208.526
1370.31	173.422
1380.32	132.164
1390.32	113.469
1400.32	110.631
1410.32	86.1617
1420.33	86.5455
1430.33	76.4527
1440.33	74.0419
1450.33	78.4182
1460.34	76.2266
1470.34	80.5958
1480.34	76.3253
1490.34	79.9566
1500.34	81.7901
1510.35	85.4768
1520.35	100.572
1530.35	109.41
1540.35	131.525
1550.36	165.24
1560.36	224.292
1570.36	291.053
1580.36	305.377
1590.37	280.735
1600.37	250.434
1610.37	218.679
1620.37	175.243
1630.38	125.059
1640.38	89.7669
1650.38	66.8708
1660.38	50.6
1670.39	41.5134
1680.39	39.1002
1690.39	32.3132
1700.39	27.3192
1710.4	26.4547
1720.4	31.725
1730.4	29.5518
1740.4	27.4678
1750.41	24.9417
1760.41	25.373
1770.41	29.4591
1780.41	25.2
1790.42	23.8664
1800.42	26.5505
1810.42	23.2977
1820.42	24.1713
1830.43	24.1104
1840.43	22.5523
1850.43	22.8607
1860.43	21.6826
1870.44	23.9167
1880.44	23.8014
1890.44	22.2
1900.44	25.6037
1910.45	22.4163
1920.45	23.9421
1930.45	23.5474
1940.45	24.6803
1950.46	25.0484
1960.46	23.1706
1970.46	25.3133
1980.46	22.9355
1990.47	23.4351
2000.47	19.761
2010.47	23.0476
2020.47	23.2673
2030.48	23.2287
2040.48	22.2145
2050.48	27.3784
2060.48	22.9258
2070.49	22.8149
2080.49	22.6111
2090.49	21.2145
2100.49	22.0617
2110.5	21.3556
2120.5	20.8519
2130.5	16.2321
2140.5	20.9797
2150.51	21.6628
2160.51	19.1167
2170.51	22.4599
2180.51	21.4321
2190.51	21.6256
2200.52	22.0066
2210.52	21.0938
2220.52	23.0103
2230.52	23.5368
2240.53	23.6023
2250.53	21.8969
2260.53	23.2242
2270.53	21.2145
2280.54	19.4394
2290.54	24.0809
2300.54	23.5827
2310.54	20.4866
2320.55	23.5717
2330.55	38.1453
2340.55	23.748
2350.55	24.5493
2360.56	24.8359
2370.56	24.0801
2380.56	26.4181
2390.56	26.1509
2400.57	28.4865
2410.57	33.5777
2420.57	32.3562
2430.57	36.2176
2440.58	36.6394
2450.58	35.738
2460.58	36.9943
2470.58	34.1275
2480.59	37.8534
2490.59	38.0012
2500.59	35.1515
2510.59	33.2518
2520.6	34.3559
2530.6	33.6043
2540.6	39.4838
2550.6	37.7333
2560.61	46.7199
2570.61	44.9715
2580.61	55.6994
2590.61	58.0363
2600.62	67.0644
2610.62	71.4797
2620.62	83.6077
2630.62	102.648
2640.63	121.089
2650.63	134.638
2660.63	153.214
2670.63	169.49
2680.64	167.743
2690.64	162.068
2700.64	146.293
2710.64	122.964
2720.65	109.834
2730.65	86.7546
2740.65	77.8151
2750.65	66.1429
2760.66	61.2164
2770.66	51.1532
2780.66	50.5136
2790.66	47.7858
2800.67	40.6414
2810.67	43.7722
2820.67	40.9031
2830.67	40.1905
2840.68	43.3017
2850.68	44.9913
2860.68	46.3748
2870.68	44.6006
2880.68	40.955
2890.69	45.9207
2900.69	46.6984
2910.69	53.6646
2920.69	47.4192
2930.7	53.3947
2940.7	44.566
2950.7	42.51
2960.7	42.8814
2970.71	39.8109
2980.71	38.8002
2990.71	32.672
3000	35.2496