Folder: Graphs/Example Data/Raman/CNT - TIM/Raytheon/FeSi adhesion/Test 7

Note: README.md
# Graphs
A macOS app that manages the organization of data files and graphs them.

Licensed under the MIT licensing terms: https://opensource.org/licenses/MIT

Hildreth wrote the precursor to Graphs, then called GraphBase, during his Ph.D. to help manage the data he was collecting as part of his research on Metal-assisted Chemical Etching of Silicon.  He was becoming overwhelmed by the hundreds of data files he was collecting every week and was inspired by the Papers and iTunes applications on OS X (now macOS) to create an application that managed data.  GraphBase provided an easy template to create a parser, a simple UI to organize data into hiarchical folders, and leveraged the DataGraph framework (http://www.visualdatatools.com/DataGraph/Framework/) for graphing.  DataGraph (http://www.visualdatatools.com/DataGraph/) is an amazing 2D graphing application and you will need to purchase a DataGraph license from Visual Data Tools in order to use Graphs.

Graphs is a rewrite of GraphBase in Swift written by Connor and then re-written again by Hildreth that has been open sourced for use by all.  Please not that you will need a DataGraph license to create the graph templates used by the DataGraph framework underlying Graphs.  Hildreth plans to continue evolving this application.  The next plan improvements are: multithreading for import and parsing using the new Results type in Swift; and begin switching over to SwiftUI for the UI.  Long term, we hope to add support for data analysis and extraction.

# Overview
Graphs is a data management tool that allows you to store your raw data files in a text formate (CSV, tab delimited, etc.) and then have those files parsed and graphed when selected.  Graphs uses the DataGraph fromework 

To use Graphs, first you create an example graph, what we call a Graph Template, in DataGraph.  Format the graph the way you want it to look and make sure that the Data Columns are in the same order as the columns in your data.  Next, you  add your "Graph Template" to Graphs using either the Graph Template Inspector on the right side of Graphs using using the "+" sign on the bottom left of the application.  You can also drag-and-drop the file onto a folder in the Source List.  Once you add a Graph Template, you can assign it to be the default Graph Template for a folder and any sub-folders using the Folder Inspector.

The second step is to make a Paser using the Parser Inspector.  It might be helpful to have an example file already in Graphs (see Step 3) because you can use the Text Inspector to see what lines your Experimental Details, Header, and Data start at.  Add a Parse Template using the + sign in the Parse Inspector's table and give the Parse Template a name.  If your data has experimental details at the top, then select the checkbox and set the starting and ending lines for this information.  If your data has a Header, select the Header checkbox, give it starting and ending line numbers, and then select the type of s

File: FeSi2 - T7_1.txt
300	347.919
307.442	338.509
314.883	339.685
322.325	322.529
329.766	311.217
337.208	314.333
344.649	293.586
352.091	301.466
359.532	296.493
366.974	289.435
374.415	286.911
381.857	279.357
389.298	292.06
396.74	276.308
404.181	289.961
411.623	279.607
419.064	270.671
426.506	271.304
433.948	272.211
441.389	266.379
448.831	271.031
456.272	265.544
463.714	256.707
471.155	256.539
478.597	253.882
486.038	246.444
493.48	249.164
500.921	247.786
508.363	238.921
515.804	251.253
523.246	271.025
530.687	241.647
538.129	233.138
545.57	233.662
553.012	233.68
560.454	229.761
567.895	236.869
575.337	231.826
582.778	234.699
590.22	236.36
597.661	239.323
605.103	243.744
612.544	246.557
619.986	239.47
627.427	238.016
634.869	252.359
642.31	238.693
649.752	257.533
657.193	261.181
664.635	242.009
672.077	256.93
679.518	248.709
686.96	274.894
694.401	259.884
701.843	256.913
709.284	268.221
716.726	287.505
724.167	282.642
731.609	288.872
739.05	293.88
746.492	294.316
753.933	297.312
761.375	305.709
768.816	300.753
776.258	310.924
783.7	317.72
791.141	322.133
798.583	319.636
806.024	322.248
813.466	343.372
820.907	341.737
828.349	345.628
835.79	358.74
843.232	349.943
850.673	354.98
858.115	350.295
865.556	337.853
872.998	328.986
880.439	307.831
887.881	319.239
895.322	295.478
902.764	284
910.206	271.678
917.647	276.108
925.089	279.009
932.53	278.069
939.972	276.618
947.413	273.705
954.855	283.689
962.296	257.085
969.738	259.38
977.179	274.908
984.621	262.944
992.062	272.305
999.504	273.251
1006.95	280.608
1014.39	285.882
1021.83	291.138
1029.27	307.13
1036.71	316.73
1044.15	306.547
1051.59	318.473
1059.04	324.431
1066.48	323.843
1073.92	339.883
1081.36	342.316
1088.8	344.147
1096.24	350.079
1103.69	353.209
1111.13	348.862
1118.57	351.911
1126.01	347.893
1133.45	346.703
1140.89	345.686
1148.33	342.323
1155.78	367.223
1163.22	354.757
1170.66	371.701
1178.1	364.127
1185.54	368.09
1192.98	380.57
1200.43	387.88
1207.87	412.659
1215.31	417.799
1222.75	418.922
1230.19	444.344
1237.63	469.338
1245.07	486.973
1252.52	508.877
1259.96	533.881
1267.4	585.677
1274.84	602.238
1282.28	681.892
1289.72	779.561
1297.17	891.002
1304.61	1055.76
1312.05	1271.58
1319.49	1538.98
1326.93	1853.84
1334.37	2008.16
1341.81	1980.29
1349.26	1740.35
1356.7	1486.92
1364.14	1235.36
1371.58	1025.49
1379.02	870.169
1386.46	778.142
1393.91	681.247
1401.35	657.942
1408.79	600.791
1416.23	573.055
1423.67	559.82
1431.11	542.787
1438.55	530.645
1446	523.825
1453.44	543.912
1460.88	549.839
1468.32	540.585
1475.76	529.706
1483.2	523.45
1490.64	546.119
1498.09	588.467
1505.53	597.232
1512.97	609.745
1520.41	672.68
1527.85	721.747
1535.29	863.937
1542.74	1016.66
1550.18	1235.28
1557.62	1556.3
1565.06	1718.49
1572.5	1804.88
1579.94	1701.18
1587.38	1553.91
1594.83	1466.44
1602.27	1355.88
1609.71	1212.87
1617.15	1005.74
1624.59	791.662
1632.03	629.931
1639.48	520.495
1646.92	440.191
1654.36	383.807
1661.8	350.862
1669.24	335.525
1676.68	327.392
1684.12	310.826
1691.57	306.259
1699.01	303.123
1706.45	290.301
1713.89	306.614
1721.33	285.38
1728.77	290.489
1736.22	288.184
1743.66	291.529
1751.1	293.604
1758.54	293.163
1765.98	298.146
1773.42	302.749
1780.86	305.799
1788.31	304.591
1795.75	311.911
1803.19	317.339
1810.63	330.952
1818.07	317.172
1825.51	320
1832.96	325.148
1840.4	311.53
1847.84	323.079
1855.28	316.263
1862.72	326.827
1870.16	330.803
1877.6	327.526
1885.05	325.92
1892.49	324.805
1899.93	320.648
1907.37	319.114
1914.81	307.806
1922.25	320.285
1929.7	320.62
1937.14	324.925
1944.58	314.218
1952.02	320.441
1959.46	319.202
1966.9	322.805
1974.34	325.908
1981.79	329.394
1989.23	321.304
1996.67	335.719
2004.11	319.926
2011.55	329.927
2018.99	329.136
2026.44	330.37
2033.88	330.233
2041.32	330.76
2048.76	326.595
2056.2	321.172
2063.64	328.56
2071.08	328.871
2078.53	325.979
2085.97	323.246
2093.41	334.153
2100.85	330.613
2108.29	332.841
2115.73	331.582
2123.18	336.338
2130.62	322.997
2138.06	333.975
2145.5	332.772
2152.94	348.347
2160.38	326.494
2167.82	328.375
2175.27	343.382
2182.71	346.254
2190.15	336.165
2197.59	333.26
2205.03	340.847
2212.47	350.139
2219.92	345.552
2227.36	349.652
2234.8	345.118
2242.24	348.709
2249.68	346.245
2257.12	340.976
2264.56	347.675
2272.01	357.973
2279.45	348.779
2286.89	374.987
2294.33	352.267
2301.77	363.238
2309.21	368.581
2316.65	366.207
2324.1	380.988
2331.54	495.675
2338.98	366.462
2346.42	371.344
2353.86	391.985
2361.3	367.21
2368.75	383.397
2376.19	391.792
2383.63	396.66
2391.07	405.283
2398.51	411.925
2400	413.222