Folder: Graphs/Example Data/Raman/Kara/05-21-10

Note: README.md
# Graphs
A macOS app that manages the organization of data files and graphs them.

Licensed under the MIT licensing terms: https://opensource.org/licenses/MIT

Hildreth wrote the precursor to Graphs, then called GraphBase, during his Ph.D. to help manage the data he was collecting as part of his research on Metal-assisted Chemical Etching of Silicon.  He was becoming overwhelmed by the hundreds of data files he was collecting every week and was inspired by the Papers and iTunes applications on OS X (now macOS) to create an application that managed data.  GraphBase provided an easy template to create a parser, a simple UI to organize data into hiarchical folders, and leveraged the DataGraph framework (http://www.visualdatatools.com/DataGraph/Framework/) for graphing.  DataGraph (http://www.visualdatatools.com/DataGraph/) is an amazing 2D graphing application and you will need to purchase a DataGraph license from Visual Data Tools in order to use Graphs.

Graphs is a rewrite of GraphBase in Swift written by Connor and then re-written again by Hildreth that has been open sourced for use by all.  Please not that you will need a DataGraph license to create the graph templates used by the DataGraph framework underlying Graphs.  Hildreth plans to continue evolving this application.  The next plan improvements are: multithreading for import and parsing using the new Results type in Swift; and begin switching over to SwiftUI for the UI.  Long term, we hope to add support for data analysis and extraction.

# Overview
Graphs is a data management tool that allows you to store your raw data files in a text formate (CSV, tab delimited, etc.) and then have those files parsed and graphed when selected.  Graphs uses the DataGraph fromework 

To use Graphs, first you create an example graph, what we call a Graph Template, in DataGraph.  Format the graph the way you want it to look and make sure that the Data Columns are in the same order as the columns in your data.  Next, you  add your "Graph Template" to Graphs using either the Graph Template Inspector on the right side of Graphs using using the "+" sign on the bottom left of the application.  You can also drag-and-drop the file onto a folder in the Source List.  Once you add a Graph Template, you can assign it to be the default Graph Template for a folder and any sub-folders using the Folder Inspector.

The second step is to make a Paser using the Parser Inspector.  It might be helpful to have an example file already in Graphs (see Step 3) because you can use the Text Inspector to see what lines your Experimental Details, Header, and Data start at.  Add a Parse Template using the + sign in the Parse Inspector's table and give the Parse Template a name.  If your data has experimental details at the top, then select the checkbox and set the starting and ending lines for this information.  If your data has a Header, select the Header checkbox, give it starting and ending line numbers, and then select the type of s

File: KLE 46 powder_1.txt
50	-1.3977
60.0413	-1.06504
70.0827	35.9268
80.124	109.174
90.1653	101.555
100.207	101.757
110.248	140.45
120.289	102.51
130.331	93.389
140.372	91.0898
150.413	96.1754
160.455	82.1817
170.496	77.2528
180.537	85.1472
190.579	77.8328
200.62	78.1772
210.661	80.5444
220.703	81
230.744	81.3247
240.785	82.5122
250.827	77.5597
260.868	80.1381
270.909	77.231
280.951	76.8437
290.992	77.668
301.033	77.6096
311.075	76.4143
321.116	65.6456
331.157	68.3858
341.199	68.0601
351.24	70.9834
361.281	61.4404
371.323	63.6732
381.364	59.582
391.405	58.8342
401.447	57.0347
411.488	60.9124
421.529	51.2552
431.571	52.2167
441.612	51.9779
451.653	47.8798
461.695	51.2562
471.736	52.0344
481.777	48.9155
491.819	52.422
501.86	46.7923
511.901	45.4826
521.943	41.919
531.984	42.772
542.025	48.1281
552.067	41.0937
562.108	40.8877
572.149	49.1414
582.191	43.6036
592.232	41.7469
602.273	45.6288
612.315	47.2587
622.356	42.7221
632.397	44.5402
642.439	49.3344
652.48	52.1278
662.521	54.5087
672.563	53.6421
682.604	52.9068
692.645	60.4836
702.687	61.7242
712.728	58.2081
722.769	59.018
732.811	62.9646
742.852	71.5982
752.893	74
762.935	73.4583
772.976	78.1887
783.017	77.2047
793.059	83.5659
803.1	82.901
813.141	96.6687
823.183	91.598
833.224	94.9833
843.265	99.8345
853.307	93.0265
863.348	87.1426
873.389	86.9158
883.431	69.2579
893.472	67.0857
903.513	50.3215
913.555	51.1014
923.596	50.8287
933.637	45.8089
943.679	35.7167
953.72	39.1162
963.761	38.5136
973.803	38.1725
983.844	36.8268
993.885	36.7176
1003.93	35.3781
1013.97	37.2756
1024.01	38.558
1034.05	45.1532
1044.09	47.7469
1054.13	44.51
1064.17	38.8258
1074.22	39.0474
1084.26	33.6892
1094.3	33.5539
1104.34	29.9589
1114.38	29.784
1124.42	28.6654
1134.46	24.9799
1144.51	27.4317
1154.55	22.8822
1164.59	23.2589
1174.63	23.8979
1184.67	24.4835
1194.71	28.0206
1204.75	25.6627
1214.79	23.9946
1224.84	26.9699
1234.88	27.6692
1244.92	30.0297
1254.96	26.7923
1265	29.1477
1275.04	37.8519
1285.08	31.9305
1295.13	43.0607
1305.17	48.3378
1315.21	63.0493
1325.25	86.3069
1335.29	116.289
1345.33	133.465
1355.37	142.427
1365.41	109.401
1375.46	85.3602
1385.5	62.1809
1395.54	45.1602
1405.58	41.7932
1415.62	42.8106
1425.66	35.0199
1435.7	37.5469
1445.75	32.1027
1455.79	40.1592
1465.83	34.8043
1475.87	39.8695
1485.91	35.6182
1495.95	42.2353
1505.99	42.2282
1516.03	44.7431
1526.08	51.5954
1536.12	56.9118
1546.16	77.5393
1556.2	122.513
1566.24	180.403
1576.28	250.487
1586.32	246.469
1596.37	185.78
1606.41	140.375
1616.45	117.805
1626.49	89.6676
1636.53	56.7
1646.57	32.815
1656.61	27.4995
1666.65	20.8472
1676.7	15.9665
1686.74	17.8601
1696.78	15.6239
1706.82	16.6505
1716.86	16.0457
1726.9	16.0435
1736.94	16.1131
1746.99	16.1194
1757.03	11.9893
1767.07	12.8345
1777.11	12.8249
1787.15	12.8357
1797.19	11.8408
1807.23	14.8344
1817.27	12.9544
1827.32	15.4069
1837.36	11.9411
1847.4	15.5392
1857.44	14.8642
1867.48	15.7812
1877.52	16.8812
1887.56	15.1619
1897.61	10.4047
1907.65	13.8223
1917.69	14.1635
1927.73	11.447
1937.77	17.9006
1947.81	12.8299
1957.85	12.6947
1967.89	14.3379
1977.94	14.8419
1987.98	13.2552
1998.02	16.5836
2008.06	13.1906
2018.1	13.2348
2028.14	17.5644
2038.18	16
2048.23	13.6051
2058.27	13.4274
2068.31	13.6761
2078.35	16.9636
2088.39	12.6526
2098.43	12.6754
2108.47	15.0202
2118.51	14.7683
2128.56	16.2025
2138.6	11.9872
2148.64	16.4324
2158.68	17.9068
2168.72	18.0322
2178.76	18.3234
2188.8	16.6957
2198.85	17.6044
2208.89	17.8477
2218.93	16.4496
2228.97	18.0757
2239.01	17.9244
2249.05	15.6351
2259.09	16.0423
2269.13	16.0369
2279.18	15.645
2289.22	16.0637
2299.26	20.6403
2309.3	16.1563
2319.34	18.5409
2329.38	28.564
2339.42	21.6405
2349.47	23.7631
2359.51	19.1969
2369.55	22.9435
2379.59	21.059
2389.63	16.7887
2399.67	18.5461
2409.71	20.5702
2419.75	24.398
2429.8	30.7099
2439.84	31.8839
2449.88	33.3664
2459.92	27.45
2469.96	30.4232
2480	29.6607
2490.04	25.3593
2500.09	27.9791
2510.13	28.5609
2520.17	26.4689
2530.21	27.859
2540.25	30.6236
2550.29	28.6944
2560.33	31.0715
2570.37	30.6385
2580.42	34.8086
2590.46	34.5955
2600.5	44.1782
2610.54	48.5814
2620.58	55.3933
2630.62	62.2091
2640.66	78.3485
2650.71	101.859
2660.75	119.33
2670.79	147.391
2680.83	165.611
2690.87	181.215
2700.91	176.616
2710.95	156.085
2720.99	135.087
2731.04	110.619
2741.08	86.9318
2751.12	70.2195
2761.16	55.616
2771.2	45.9959
2781.24	40.6292
2791.28	35.6662
2801.32	35.7702
2811.37	32.3922
2821.41	31.0635
2831.45	32.6078
2841.49	30.8138
2851.53	30.9674
2861.57	31.2465
2871.61	32.8303
2881.66	33.1746
2891.7	31.5812
2901.74	32.1746
2911.78	35
2921.82	35.3564
2931.86	37.2403
2941.9	37.6973
2951.95	37.1113
2961.99	31.2517
2972.03	30.6452
2982.07	31.6199
2992.11	22.1327
3000	27.1904