Folder: Graphs/Example Data/Raman/Kara/05-23-2011

Note: Example Data/Raman/Kara/05-23-2011/KLE60_2.txt
200	41.2457199097
202.689239502	45.4604606628
205.378479004	45.3047523499
208.067733765	46.5687980652
210.756973267	45.8893203735
213.446212769	42.5551834106
216.135452271	44.8640022278
218.824707031	47.7369003296
221.513946533	47.1526374817
224.203186035	44.3686943054
226.892425537	44.7940940857
229.581680298	44.7999992371
232.2709198	43.8341140747
234.960159302	41.0190887451
237.649398804	43.3971862793
240.338638306	49.2703666687
243.027893066	45.8382759094
245.717132568	40.8968772888
248.40637207	43.7261810303
251.095611572	44.6963844299
253.784866333	45.5618667603
256.474090576	47.4919433594
259.163360596	49.3854637146
261.852600098	47.9968605042
264.5418396	40.4792709351
267.231079102	43.6867179871
269.920318604	45.3056907654
272.609558105	44.1873321533
275.298797607	42.3920593262
277.988037109	41.7013931274
280.677276611	41.824256897
283.366546631	50.2988128662
286.055786133	43.6241416931
288.745025635	41.8595733643
291.434265137	41.7215003967
294.123504639	41.7367935181
296.812744141	41.3930282593
299.501983643	35.570350647
302.191223145	36.7719993591
304.880493164	35.9800224304
307.569732666	37.44972229
310.258972168	34.4878044128
312.94821167	30.9869194031
315.637451172	32.3994407654
318.326690674	31.7525749207
321.015930176	28.2286224365
323.705169678	27.978012085
326.39440918	26.8475036621
329.083679199	26.0998954773
331.772918701	27.9495029449
334.462158203	28.3599681854
337.151397705	18.9675712585
339.840637207	32.0585594177
342.529876709	27.337556839
345.219116211	25.3984775543
347.908355713	24.675535202
350.597595215	25.7937469482
353.286865234	27.0504360199
355.976104736	23.4059810638
358.665344238	19.0881595612
361.35458374	21.0295791626
364.043823242	21.754825592
366.733062744	21.0969467163
369.422302246	18.7045574188
372.111541748	16.7630558014
374.800811768	18.1516265869
377.49005127	20.8707847595
380.179290771	20.0922660828
382.868530273	18.0154705048
385.557769775	18.218208313
388.247009277	17.659620285
390.936248779	15.1894216537
393.625488281	14.3225984573
396.314727783	18.9966621399
399.003997803	11.7108697891
401.693237305	16.5464630127
404.382476807	18.8561306
407.071716309	16.9662704468
409.760955811	13.1019430161
412.450195313	11.8331441879
415.139434814	14.5221452713
417.828674316	12.7443552017
420.517913818	13.7007026672
423.207183838	12.3191452026
425.89642334	12.4194440842
428.585662842	13.0636262894
431.274902344	13.7508926392
433.964141846	13.6486387253
436.653381348	11.6422538757
439.34262085	10.5989570618
442.031860352	10.2503757477
444.721130371	13.5559568405
447.410369873	11.1172380447
450.099609375	9.97782421112
452.788848877	11.13626194
455.478088379	10.2099027634
458.167327881	6.67393350601
460.856567383	4.05431318283
463.545806885	5.96740865707
466.235046387	7.46661996841
468.924316406	7.47752332687
471.613555908	5.33559846878
474.30279541	3.37051010132
476.992034912	4.66000366211
479.681274414	8.14695

Note: Example Data/Raman/Kara/05-23-2011/KLE60_2_baseadjpoly.txt
200	81.8925018311
202.689239502	85.697303772
205.378479004	85.1339874268
208.067733765	85.9927597046
210.756973267	84.9103317261
213.446212769	81.1755599976
216.135452271	83.0860595703
218.824707031	85.5629501343
221.513946533	84.5849761963
224.203186035	81.4096221924
226.892425537	81.4458999634
229.581680298	81.0649642944
232.2709198	79.7145233154
234.960159302	76.5172195435
237.649398804	78.5153045654
240.338638306	84.0107421875
243.027893066	80.2031555176
245.717132568	74.8885269165
248.40637207	77.3468399048
251.095611572	77.9482955933
253.784866333	78.447265625
256.474090576	80.0130691528
259.163360596	81.5445327759
261.852600098	79.7960968018
264.5418396	71.9208908081
267.231079102	74.7729263306
269.920318604	76.0386962891
272.609558105	74.5693359375
275.298797607	72.4252471924
277.988037109	71.3879547119
280.677276611	71.1663818359
283.366546631	79.2986602783
286.055786133	72.2838973999
288.745025635	70.1813964844
291.434265137	69.7075576782
294.123504639	69.3892364502
296.812744141	68.7140045166
299.501983643	62.5620040894
302.191223145	63.4364700317
304.880493164	62.3194389343
307.569732666	63.466217041
310.258972168	60.1834983826
312.94821167	56.3639297485
315.637451172	57.4598770142
318.326690674	56.4985427856
321.015930176	52.6622238159
323.705169678	52.1013412476
326.39440918	50.6626472473
329.083679199	49.6089363098
331.772918701	51.1545219421
334.462158203	51.2630386353
337.151397705	41.5707588196
339.840637207	54.3639297485
342.529876709	49.3471641541
345.219116211	47.1143722534
347.908355713	46.0997657776
350.597595215	46.9283485413
353.286865234	47.8974456787
355.976104736	43.9674263
358.665344238	39.366065979
361.35458374	41.0259666443
364.043823242	41.4717063904
366.733062744	40.5363273621
369.422302246	37.8684387207
372.111541748	35.6534347534
374.800811768	36.7704925537
377.49005127	39.220123291
380.179290771	38.1740608215
382.868530273	35.8316955566
385.557769775	35.7708282471
388.247009277	34.9506034851
390.936248779	32.2207260132
393.625488281	31.0961761475
396.314727783	35.5144577026
399.003997803	27.9748268127
401.693237305	32.5585174561
404.382476807	34.6182136536
407.071716309	32.4803085327
409.760955811	28.3698558807
412.450195313	26.8568477631
415.139434814	29.3035469055
417.828674316	27.285358429
420.517913818	28.0032062531
423.207183838	26.3850383759
425.89642334	26.250617981
428.585662842	26.6619625092
431.274902344	27.1182670593
433.964141846	26.7869224548
436.653381348	24.5533123016
439.34262085	23.2846488953
442.031860352	22.712556839
444.721130371	25.7964725494
447.410369873	23.1379356384
450.099609375	21.7805423737
452.788848877	22.7228317261
455.478088379	21.582151413
458.167327881	17.8336849213
460.856567383	15.0033807755
463.545806885	16.7076053619
466.235046387	17.9997501373
468.924316406	17.8053836823
471.613555908	15.4599866867
474.30279541	13.2932157516
476.992034912	14.382809639
479.681274414	17.67

File: glass_1.txt
200	3258.2
209.927	3376.47
219.853	3340.38
229.78	3339.49
239.706	3343.89
249.633	3350
259.559	3332.55
269.486	3349.97
279.413	3400.74
289.339	3432.06
299.266	3441.87
309.192	3455.79
319.119	3455.54
329.045	3524.55
338.972	3549.83
348.898	3610.93
358.825	3641
368.752	3647.22
378.678	3684.13
388.605	3668.1
398.531	3720.62
408.458	3758.27
418.384	3788.53
428.311	3831.24
438.238	3883.69
448.164	3881.35
458.091	3886.07
468.017	3876.86
477.944	3872.94
487.87	3831.78
497.797	3804.02
507.723	3819.16
517.65	3861.77
527.577	4097.57
537.503	4417.67
547.43	4732.15
557.356	4804.75
567.283	4713.7
577.209	4518.8
587.136	4302.07
597.063	4067.57
606.989	3839.68
616.916	3535.98
626.842	3298.35
636.769	3142.33
646.695	2954.33
656.622	2734.52
666.549	2561.73
676.475	2409.5
686.402	2210.71
696.328	2064.67
706.255	1961.82
716.181	1869.94
726.108	1813.7
736.034	1789.55
745.961	1787.94
755.888	1802.25
765.814	1873.52
775.741	1897.73
785.667	1888.84
795.594	1854.78
805.52	1821.16
815.447	1710.3
825.374	1610.4
835.3	1550.37
845.227	1471.5
855.153	1447.95
865.08	1438.45
875.006	1450.48
884.933	1444.84
894.859	1471.05
904.786	1537.65
914.713	1626.76
924.639	1748.94
934.566	1895.54
944.492	1994.58
954.419	2029.68
964.345	2025.04
974.272	2169.82
984.199	2366.82
994.125	2374.4
1004.05	2356.94
1013.98	2451.56
1023.9	2606.11
1033.83	2864.6
1043.76	3092.16
1053.68	3395.95
1063.61	3709.8
1073.54	4057.81
1083.46	4345.85
1093.39	4465.91
1103.32	4410.37
1113.24	4092.44
1123.17	3704.13
1133.1	3303.45
1143.02	2931.7
1152.95	2652.64
1162.88	2384.86
1172.8	2129.85
1182.73	1956.71
1192.66	1762.75
1202.58	1627.75
1212.51	1519.84
1222.44	1424.87
1232.36	1408.8
1242.29	1366.01
1252.22	1344.46
1262.14	1331.05
1272.07	1306.87
1282	1306.97
1291.92	1293.57
1301.85	1283.07
1311.78	1290.79
1321.7	1311.1
1331.63	1317.04
1341.55	1309.3
1351.48	1320.97
1361.41	1308.21
1371.33	1310.05
1381.26	1308.02
1391.19	1303.34
1401.11	1290.14
1411.04	1296.45
1420.97	1308.4
1430.89	1313.24
1440.82	1321.79
1450.75	1335.7
1460.67	1356.06
1470.6	1349.06
1480.53	1351.67
1490.45	1359.69
1500.38	1390.89
1510.31	1429.81
1520.23	1391.33
1530.16	1349.61
1540.09	1318.65
1550.01	1335.13
1559.94	1317.4
1569.87	1323.54
1579.79	1337.55
1589.72	1326.65
1599.65	1345.78
1609.57	1324.74
1619.5	1348.22
1629.43	1341.25
1639.35	1323.84
1649.28	1334.43
1659.2	1332.44
1669.13	1343.13
1679.06	1356.32
1688.98	1375.13
1698.91	1390.85
1708.84	1418.28
1718.76	1438.41
1728.69	1446.09
1738.62	1446.26
1748.54	1437.18
1758.47	1428.18
1768.4	1434.01
1778.32	1411.42
1788.25	1435.61
1798.18	1420.86
1808.1	1403.46
1818.03	1411.43
1827.96	1421.1
1837.88	1426.59
1847.81	1443.05
1857.74	1460.63
1867.66	1445.57
1877.59	1435.62
1887.52	1452.06
1897.44	1448.85
1907.37	1452.09
1917.3	1444.78
1927.22	1452.67
1937.15	1427.42
1947.08	1439.41
1957	1438.07
1966.93	1426.19
1976.85	1428.55
1986.78	1467.13
1996.71	1449.83
2006.63	1471.64
2016.56	1477.55
2026.49	1482.91
2036.41	1486.56
2046.34	1483.89
2056.27	1479.18
2066.19	1475.49
2076.12	1473.8
2086.05	1456
2095.97	1466.81
2105.9	1443.88
2115.83	1448.91
2125.75	1454.61
2135.68	1455.26
2145.61	1458.75
2155.53	1456.83
2165.46	1461.04
2175.39	1455.21
2185.31	1453.32
2195.24	1445.71
2205.17	1437.75
2215.09	1426.08
2225.02	1439.23
2234.95	1443.43
2244.87	1433.79
2254.8	1451.67
2264.73	1469.37
2274.65	1481.03
2284.58	1500.44
2294.5	1515.53
2304.43	1537.42
2314.36	1579.15
2324.28	1624.48
2334.21	1668.77
2344.14	1749.13
2354.06	1813.63
2363.99	1919.17
2373.92	2040.57
2383.84	2129.72
2393.77	2176.65
2403.7	2203
2413.62	2265.78
2423.55	2280.01
2433.48	2279.14
2443.4	2246.61
2453.33	2188.39
2463.26	2137.46
2473.18	2100.23
2483.11	2060.44
2493.04	2043.08
2502.96	2043.12
2512.89	2038.77
2522.82	2083.2
2532.74	2090.29
2542.67	2061.46
2552.6	2066.88
2562.52	2045.57
2572.45	2021.29
2582.38	1998.38
2592.3	1960.23
2602.23	1924.56
2612.16	1905.36
2622.08	1912.18
2632.01	1895.22
2641.93	1910.91
2651.86	1882.92
2661.79	1879.9
2671.71	1865.74
2681.64	1878.65
2691.57	1849.33
2701.49	1854.87
2711.42	1832.13
2721.35	1817.93
2731.27	1817.125
2741.2	1806.37
2751.13	1822.89
2761.05	1815.2
2770.98	1813.69
2780.91	1818.86
2790.83	1825.74
2800.76	1825.57
2810.69	1832.38
2820.61	1829.62
2830.54	1842.74
2840.47	1842.24
2850.39	1838.56
2860.32	1838.29
2870.25	1839.57
2880.17	1868.61
2890.1	1857.46
2900.03	1889.75
2909.95	1888.65
2919.88	1879.48
2929.8	1902.18
2939.73	1898.14
2949.66	1910.32
2959.58	1911.81
2969.51	1922.52
2979.44	1895.21
2989.36	1908.5
2999.29	1931.04
3000	1925.99

File: Owen CNT_1.txt
300	-172.285
307.74	-173.016
315.481	-173.773
323.221	-174.792
330.962	-175.152
338.702	-174.459
346.443	-174.605
354.183	-173.425
361.923	-174.595
369.664	-175.026
377.404	-175.36
385.145	-175.673
392.885	-173.147
400.625	-172.5
408.366	-173.632
416.106	-172.089
423.847	-169.697
431.587	-171.631
439.328	-171.105
447.068	-172.861
454.808	-172.683
462.549	-170.86
470.289	-172.232
478.03	-171.403
485.77	-171.755
493.511	-172.726
501.251	-171.623
508.991	-170.765
516.732	-172.436
524.472	-170.177
532.213	-171.68
539.953	-171.6
547.693	-171.389
555.434	-172.645
563.174	-169.523
570.915	-168.368
578.655	-170.126
586.396	-168.314
594.136	-168.778
601.876	-168.68
609.617	-167.673
617.357	-166.921
625.098	-168.95
632.838	-166.685
640.579	-167.657
648.319	-169.618
656.059	-168.806
663.8	-167.036
671.54	-168.538
679.281	-168.351
687.021	-168.318
694.762	-168.008
702.502	-166.832
710.242	-166.552
717.983	-166.664
725.723	-164.528
733.464	-163.961
741.204	-166.503
748.944	-164.497
756.685	-164.676
764.425	-165.122
772.166	-163.958
779.906	-163.284
787.647	-163.507
795.387	-162.797
803.127	-161.831
810.868	-160.425
818.608	-162.297
826.349	-162.259
834.089	-160.966
841.83	-160.311
849.57	-160.457
857.31	-158.795
865.051	-158.006
872.791	-157.534
880.532	-157.404
888.272	-154.16
896.013	-157.191
903.753	-155.032
911.493	-154.756
919.234	-155.085
926.974	-153.674
934.715	-152.834
942.455	-151.53
950.195	-149.23
957.936	-148.255
965.676	-147.183
973.417	-145.1
981.157	-144.759
988.898	-142.469
996.638	-139.961
1004.38	-138.082
1012.12	-135.004
1019.86	-132.101
1027.6	-128.016
1035.34	-125.138
1043.08	-119.585
1050.82	-116.283
1058.56	-103.734
1066.3	-91.6637
1074.04	-82.8777
1081.78	-75.117
1089.52	-66.8277
1097.26	-60.1736
1105	-54.1603
1112.74	-51.9123
1120.48	-53.3048
1128.23	-53.6481
1135.97	-61.9947
1143.71	-60.874
1151.45	-59.0444
1159.19	-59.1645
1166.93	-58.7721
1174.67	-59.2426
1182.41	-58.6069
1190.15	-57.1966
1197.89	-57.84
1205.63	-55.0346
1213.37	-57.5973
1221.11	-59.4963
1228.85	-57.1268
1236.59	-56.1265
1244.33	-57.5479
1252.07	-56.4414
1259.81	-57.1778
1267.55	-56.2276
1275.29	-56.2868
1283.03	-54.5728
1290.77	-54.5743
1298.51	-54.0203
1306.25	-55.5883
1314	-52.7715
1321.74	-55.5848
1329.48	-52.6215
1337.22	-53.0721
1344.96	-51.5007
1352.7	-52.0918
1360.44	-48.8827
1368.18	-52.1429
1375.92	-52.4114
1383.66	-53.5239
1391.4	-52.3148
1399.14	-53.3074
1406.88	-52.0563
1414.62	-50.7377
1422.36	-52.579
1430.1	-52.0074
1437.84	-50.2219
1445.58	-51.821
1453.32	-49.6503
1461.06	-48.868
1468.8	-48.4837
1476.54	-48.5597
1484.28	-48.1555
1492.03	-45.7027
1499.77	-47.4681
1507.51	-45.8075
1515.25	-46.7868
1522.99	-45.2759
1530.73	-44.567
1538.47	-44.7106
1546.21	-44.0041
1553.95	-42.7397
1561.69	-42.9672
1569.43	-41.9074
1577.17	-41.6039
1584.91	-39.6157
1592.65	-38.816
1600.39	-38.2345
1608.13	-38.0167
1615.87	-37.9108
1623.61	-33.5119
1631.35	-33.9634
1639.09	-34.2868
1646.83	-33.5025
1654.57	-30.1631
1662.31	-29.4979
1670.05	-28.5774
1677.8	-25.0116
1685.54	-23.4338
1693.28	-20.5801
1701.02	-18.6604
1708.76	-12.0086
1716.5	-8.44002
1724.24	-3.2433
1731.98	1.08472
1739.72	11.5524
1747.46	23.073
1755.2	31.5399
1762.94	43.0706
1770.68	51.5041
1778.42	58.6345
1786.16	61.7094
1793.9	62.2215
1801.64	60.1897
1809.38	56.1214
1817.12	55.4763
1824.86	56.3481
1832.6	55.4766
1840.34	55.6752
1848.08	55.1118
1855.82	55.5437
1863.57	54.1549
1871.31	54.101
1879.05	55.6667
1886.79	55.3895
1894.53	54.6909
1902.27	57.0874
1910.01	58.3868
1917.75	57.2731
1925.49	56.4965
1933.23	59.2399
1940.97	58.1458
1948.71	59.6078
1956.45	58.2296
1964.19	58.9272
1971.93	59.8265
1979.67	60.5686
1987.41	59.3417
1995.15	59.553
2002.89	61.3664
2010.63	59.8459
2018.37	61.2923
2026.11	61.5542
2033.85	59.9881
2041.59	60.4435
2049.34	61.8971
2057.08	62.6808
2064.82	62.1907
2072.56	61.2513
2080.3	62.8215
2088.04	60.4225
2095.78	63.2406
2103.52	64.9879
2111.26	65.3394
2119	63.9448
2126.74	66.1501
2134.48	66.8987
2142.22	67.4448
2149.96	69.3071
2157.7	68.7381
2165.44	68.3327
2173.18	68.4446
2180.92	70.1923
2188.66	68.4046
2196.4	70.2945
2204.14	71.1222
2211.88	71.5638
2219.62	72.1036
2227.36	72.5793
2235.11	72.1255
2242.85	74.9302
2250.59	74.9513
2258.33	75.8503
2266.07	77.2009
2273.81	78.4554
2281.55	80.9567
2289.29	82.295
2297.03	85.6917
2304.77	87.0879
2312.51	87.6105
2320.25	91.8965
2327.99	96.364
2335.73	100.75
2343.47	107.463
2351.21	114.069
2358.95	120.908
2366.69	130.131
2374.43	141.521
2382.17	153.003
2389.91	167.925
2397.65	185.187
2405.39	208.137
2413.14	233.741
2419.47	259.501

File: Owen CNT_2.txt
300	-148.863
306.115	-152.026
312.23	-150.012
318.345	-150.495
324.46	-149.864
330.576	-150.671
336.691	-153.738
342.806	-151.156
348.921	-150.194
355.036	-148.438
361.151	-150.332
367.266	-148.317
373.381	-152.055
379.496	-151.273
385.612	-150.893
391.727	-150.285
397.842	-150.326
403.957	-149.157
410.072	-148.044
416.187	-150.2
422.302	-148.036
428.417	-149.118
434.532	-148.2
440.647	-151.951
446.763	-148.523
452.878	-149.688
458.993	-146.551
465.108	-147.062
471.223	-148.499
477.338	-150.646
483.453	-147.144
489.568	-148.953
495.683	-148.035
501.799	-146.456
507.914	-147.305
514.029	-146.063
520.144	-146.779
526.259	-145.837
532.374	-144.771
538.489	-147.129
544.604	-144.592
550.719	-146.358
556.835	-146.533
562.95	-148.05
569.065	-141.883
575.18	-147.61
581.295	-145.341
587.41	-146.749
593.525	-145.054
599.64	-144.837
605.755	-145.561
611.87	-146.096
617.986	-146.852
624.101	-147.308
630.216	-145.694
636.331	-143.949
642.446	-145.111
648.561	-144.834
654.676	-147.723
660.791	-141.871
666.906	-144.723
673.022	-141.444
679.137	-142.144
685.252	-141.006
691.367	-143.229
697.482	-143.67
703.597	-141.531
709.712	-141.365
715.827	-140.581
721.942	-139.769
728.058	-138.992
734.173	-138.79
740.288	-139.181
746.403	-138.414
752.518	-138.4
758.633	-136.5
764.748	-138.869
770.863	-138.872
776.978	-136.462
783.094	-137.532
789.209	-136.505
795.324	-135.601
801.439	-137.281
807.554	-136.884
813.669	-137.586
819.784	-134.997
825.899	-133.905
832.014	-137.003
838.13	-135.426
844.245	-134.528
850.36	-133.9
856.475	-133.333
862.59	-133.095
868.705	-133.878
874.82	-132.443
880.935	-131.1
887.05	-131.527
893.165	-132.262
899.281	-130.427
905.396	-129.563
911.511	-131.787
917.626	-131.815
923.741	-129.713
929.856	-128.73
935.971	-129.908
942.086	-126.952
948.201	-126.444
954.317	-124.548
960.432	-124.784
966.547	-125.066
972.662	-123.202
978.777	-123.319
984.892	-121.406
991.007	-122.785
997.122	-120.32
1003.24	-115.553
1009.35	-112.247
1015.47	-110.556
1021.58	-110.216
1027.7	-109.046
1033.81	-104.616
1039.93	-102.024
1046.04	-100.044
1052.16	-96.3568
1058.27	-86.3744
1064.39	-81.2327
1070.5	-72.7558
1076.62	-66.5941
1082.73	-60.3786
1088.85	-54.7459
1094.96	-52.8373
1101.08	-48.4157
1107.19	-43.7205
1113.31	-42.0162
1119.42	-42.1881
1125.54	-43.6267
1131.65	-49.8622
1137.77	-46.2497
1143.88	-47.1935
1150	-48.4617
1156.12	-47.7976
1162.23	-48.3191
1168.35	-50.4779
1174.46	-49.8897
1180.58	-47.6493
1186.69	-48.0907
1192.81	-46.3122
1198.92	-49.3298
1205.04	-45.6579
1211.15	-47.9936
1217.27	-48.5568
1223.38	-47.0358
1229.5	-47.8567
1235.61	-44.0286
1241.73	-44.8326
1247.84	-45.4407
1253.96	-44.8461
1260.07	-44.3561
1266.19	-47.306
1272.3	-45.0343
1278.42	-46.3381
1284.53	-44.5774
1290.65	-42.9233
1296.76	-43.7875
1302.88	-43.3598
1308.99	-40.1497
1315.11	-41.2417
1321.22	-41.7099
1327.34	-39.7696
1333.45	-40.9724
1339.57	-37.813
1345.68	-37.3999
1351.8	-37.9541
1357.91	-40.608
1364.03	-41.9032
1370.14	-37.9329
1376.26	-39.5435
1382.37	-38.5971
1388.49	-40.3233
1394.6	-39.7747
1400.72	-41.932
1406.83	-39.0913
1412.95	-39.8686
1419.06	-39.7722
1425.18	-38.9477
1431.29	-38.0982
1437.41	-37.4879
1443.53	-35.4508
1449.64	-39.3143
1455.76	-37.123
1461.87	-37.5485
1467.99	-36.7233
1474.1	-37.1013
1480.22	-35.5776
1486.33	-37.0068
1492.45	-34.5621
1498.56	-35.4323
1504.68	-33.9482
1510.79	-35.4938
1516.91	-32.5095
1523.02	-33.3559
1529.14	-30.6778
1535.25	-32.6936
1541.37	-32.6043
1547.48	-28.9204
1553.6	-29.5032
1559.71	-28.1432
1565.83	-25.8622
1571.94	-23.4643
1578.06	-21.5433
1584.17	-23.0634
1590.29	-20.4006
1596.4	-19.1298
1602.52	-20.2634
1608.63	-20.3921
1614.75	-16.1641
1620.86	-17.2904
1626.98	-17.1644
1633.09	-16.8064
1639.21	-17.1471
1645.32	-15.7434
1651.44	-15.9684
1657.55	-14.6423
1663.67	-12.8038
1669.78	-9.94854
1675.9	-11.1646
1682.01	-11.8276
1688.13	-10.4512
1694.24	-6.59924
1700.36	-5.52615
1706.47	-4.22037
1712.59	-3.4981
1718.71	-2.05885
1724.82	-0.297954
1730.94	1.99364
1737.05	3.03089
1743.17	1.49071
1749.28	4.20387
1755.4	4.89282
1761.51	4.4502
1767.63	4.91533
1773.74	6.06622
1779.86	4.93465
1785.97	5.052
1792.09	2.55192
1798.2	3.81391
1804.32	0.385066
1810.43	-0.532562
1816.55	-2.05644
1822.66	-0.913727
1828.78	-0.272781
1834.89	1.46577
1841.01	-2.07133
1847.12	-0.536087
1853.24	-1.14832
1859.35	-1.45581
1865.47	1.79498
1871.58	1.08003
1877.7	3.62775
1883.81	-0.00131226
1889.93	3.66446
1896.04	4.17929
1902.16	2.7215
1908.27	4.31732
1914.39	7.77422
1920.5	2.38925
1926.62	6.60745
1932.73	5.07076
1938.85	4.66576
1944.96	6.53667
1951.08	6.94768
1957.19	8.68063
1963.31	7.82768
1969.42	7.66772
1975.54	9.16086
1981.65	11.2195
1987.77	11.4169
1993.88	12.9821
2000	11.9223

File: Owen CNT_3.txt
300	-204.657
306.115	-206.378
312.23	-204.282
318.345	-206.624
324.46	-204.835
330.576	-205.2
336.691	-206
342.806	-203.559
348.921	-203.135
355.036	-203.055
361.151	-205.834
367.266	-205.724
373.381	-203.145
379.496	-205.247
385.612	-206.991
391.727	-206.548
397.842	-203.725
403.957	-202.415
410.072	-204.267
416.187	-202.6
422.302	-201.097
428.417	-203.433
434.532	-204.054
440.647	-204.171
446.763	-205.379
452.878	-204.098
458.993	-203.167
465.108	-202.862
471.223	-202.452
477.338	-202.788
483.453	-200.824
489.568	-206.873
495.683	-205.426
501.799	-202.764
507.914	-204.608
514.029	-204.744
520.144	-203.441
526.259	-203.17
532.374	-201.284
538.489	-199.851
544.604	-199.404
550.719	-203.2
556.835	-202.528
562.95	-202.1
569.065	-198.683
575.18	-202.742
581.295	-201.422
587.41	-198.365
593.525	-202.098
599.64	-200.2
605.755	-200.173
611.87	-199.263
617.986	-201.984
624.101	-200.449
630.216	-199.129
636.331	-202.519
642.446	-201.108
648.561	-197.048
654.676	-199.68
660.791	-198.479
666.906	-197.88
673.022	-196.994
679.137	-196.108
685.252	-195
691.367	-193.742
697.482	-194.26
703.597	-195.738
709.712	-194.4
715.827	-193.291
721.942	-194.679
728.058	-195.277
734.173	-192.925
740.288	-194.2
746.403	-194.744
752.518	-192.964
758.633	-192.875
764.748	-189.397
770.863	-190.519
776.978	-192.982
783.094	-190.429
789.209	-189.084
795.324	-190.281
801.439	-191.111
807.554	-191.242
813.669	-190.924
819.784	-187.456
825.899	-189.264
832.014	-190.01
838.13	-189.712
844.245	-188.393
850.36	-189.686
856.475	-188.85
862.59	-185.206
868.705	-184.922
874.82	-186.435
880.935	-186.1
887.05	-183.982
893.165	-184.505
899.281	-182.854
905.396	-183.692
911.511	-182.174
917.626	-180.76
923.741	-180.037
929.856	-177.585
935.971	-178.261
942.086	-176.859
948.201	-177.839
954.317	-175.316
960.432	-175.957
966.547	-174.755
972.662	-170.201
978.777	-170.026
984.892	-168.486
991.007	-165.419
997.122	-165.96
1003.24	-162.977
1009.35	-158.429
1015.47	-158.449
1021.58	-155.192
1027.7	-148.758
1033.81	-147.426
1039.93	-143.802
1046.04	-139.711
1052.16	-132.324
1058.27	-133.944
1064.39	-133.508
1070.5	-134.415
1076.62	-134.773
1082.73	-135.338
1088.85	-137.89
1094.96	-141.513
1101.08	-147.215
1107.19	-153.096
1113.31	-159.975
1119.42	-172.168
1125.54	-183.243
1131.65	-199.014
1137.77	-197.76
1143.88	-198.814
1150	-197.997
1156.12	-199.104
1162.23	-198.843
1168.35	-198.823
1174.46	-198.3
1180.58	-196.775
1186.69	-196.859
1192.81	-198.236
1198.92	-195.754
1205.04	-198.147
1211.15	-198.132
1217.27	-197.393
1223.38	-195.484
1229.5	-196.44
1235.61	-195.609
1241.73	-193.922
1247.84	-195.529
1253.96	-195.571
1260.07	-193.76
1266.19	-193.691
1272.3	-197.286
1278.42	-195.307
1284.53	-195.054
1290.65	-195.197
1296.76	-195.2
1302.88	-195.785
1308.99	-192
1315.11	-196.543
1321.22	-193.009
1327.34	-194.754
1333.45	-192.278
1339.57	-191.483
1345.68	-191.211
1351.8	-191.797
1357.91	-191.939
1364.03	-191.365
1370.14	-193.986
1376.26	-192.8
1382.37	-192.179
1388.49	-192.889
1394.6	-193.398
1400.72	-192.287
1406.83	-193.898
1412.95	-193.949
1419.06	-193.102
1425.18	-191.71
1431.29	-191.132
1437.41	-190.548
1443.53	-188.798
1449.64	-188.651
1455.76	-190.28
1461.87	-190.593
1467.99	-189.804
1474.1	-189.486
1480.22	-193.773
1486.33	-190.21
1492.45	-188.967
1498.56	-190.855
1504.68	-190.282
1510.79	-188.252
1516.91	-187.406
1523.02	-185.783
1529.14	-186.275
1535.25	-184.35
1541.37	-187.643
1547.48	-182.254
1553.6	-183.998
1559.71	-183.532
1565.83	-182.157
1571.94	-180.747
1578.06	-181.744
1584.17	-178.062
1590.29	-179.291
1596.4	-179.62
1602.52	-178.585
1608.63	-177.262
1614.75	-177.856
1620.86	-175.85
1626.98	-175.654
1633.09	-175.53
1639.21	-175.877
1645.32	-176.276
1651.44	-174.813
1657.55	-175.076
1663.67	-174.668
1669.78	-172.551
1675.9	-172.299
1682.01	-171.476
1688.13	-170.086
1694.24	-170.691
1700.36	-167.487
1706.47	-168.541
1712.59	-167.589
1718.71	-168.55
1724.82	-167.301
1730.94	-166.276
1737.05	-168.088
1743.17	-164.591
1749.28	-165.15
1755.4	-163.997
1761.51	-163.936
1767.63	-164.549
1773.74	-162.162
1779.86	-165.848
1785.97	-166.515
1792.09	-168.542
1798.2	-169.241
1804.32	-176.427
1810.43	-176.14
1816.55	-176.236
1822.66	-176.417
1828.78	-174.517
1834.89	-170.948
1841.01	-171.751
1847.12	-169.858
1853.24	-174.054
1859.35	-171.651
1865.47	-171.367
1871.58	-168.77
1877.7	-171.603
1883.81	-171.581
1889.93	-170.122
1896.04	-170.923
1902.16	-169.575
1908.27	-170.199
1914.39	-170.655
1920.5	-169.899
1926.62	-168.188
1932.73	-167.692
1938.85	-170.12
1944.96	-165.121
1951.08	-167.927
1957.19	-166.886
1963.31	-166.071
1969.42	-165.091
1975.54	-164.86
1981.65	-162.699
1987.77	-162.266
1993.88	-162.916
2000	-163.995