Folder: Graphs/Example Data/Raman/Kara/05-23-2011 (part 2)

File: Owen CNT_4.txt
1000	-172.601
1003.65	-174.4
1007.3	-174.065
1010.95	-173.176
1014.6	-175.325
1018.25	-173.914
1021.9	-175.532
1025.55	-172.577
1029.2	-175.656
1032.85	-172.107
1036.5	-174.128
1040.15	-174
1043.8	-173.741
1047.45	-173.947
1051.09	-174.417
1054.74	-176.326
1058.39	-174.288
1062.04	-174.44
1065.69	-174.275
1069.34	-172.844
1072.99	-171.302
1076.64	-171.786
1080.29	-172.473
1083.94	-173.87
1087.59	-174.892
1091.24	-173.4375
1094.89	-172.701
1098.54	-174.95
1102.19	-173
1105.84	-175.511
1109.49	-172.961
1113.14	-174.881
1116.79	-174.578
1120.44	-173.962
1124.09	-173.879
1127.74	-171.665
1131.39	-173.318
1135.04	-172.906
1138.69	-176.228
1142.34	-173.728
1145.99	-173.681
1149.64	-172.326
1153.28	-173.414
1156.93	-172.146
1160.58	-172.347
1164.23	-172.441
1167.88	-173.122
1171.53	-172.696
1175.18	-175.488
1178.83	-171.295
1182.48	-171.829
1186.13	-172.241
1189.78	-172.052
1193.43	-171.456
1197.08	-172.556
1200.73	-171.544
1204.38	-170.622
1208.03	-172.362
1211.68	-171.447
1215.33	-173.017
1218.98	-170.979
1222.63	-171.028
1226.28	-172.173
1229.93	-170.943
1233.58	-168.897
1237.23	-168.66
1240.88	-171.925
1244.53	-169.347
1248.18	-169.697
1251.82	-170.348
1255.47	-170.308
1259.12	-171.234
1262.77	-170.735
1266.42	-168.397
1270.07	-170.354
1273.72	-168.519
1277.37	-168.864
1281.02	-170.86
1284.67	-166.871
1288.32	-171.728
1291.97	-169
1295.62	-168.818
1299.27	-168.31
1302.92	-167.929
1306.57	-170.943
1310.22	-166.8
1313.87	-167.8
1317.52	-167.285
1321.17	-168.689
1324.82	-166.43
1328.47	-167
1332.12	-164.362
1335.77	-162.675
1339.42	-163.908
1343.07	-163.728
1346.72	-163.597
1350.36	-159.736
1354.01	-163.623
1357.66	-161.8
1361.31	-162.514
1364.96	-161.8
1368.61	-165.732
1372.26	-163.531
1375.91	-166.743
1379.56	-165.655
1383.21	-162.601
1386.86	-167.026
1390.51	-163.372
1394.16	-166.938
1397.81	-163.742
1401.46	-162.7
1405.11	-164.791
1408.76	-162.665
1412.41	-162.578
1416.06	-160.434
1419.71	-159.643
1423.36	-162.002
1427.01	-162.111
1430.66	-163.459
1434.31	-163.427
1437.96	-163.4
1441.61	-160.473
1445.26	-161.429
1448.91	-162.757
1452.55	-161.027
1456.2	-161.083
1459.85	-160.491
1463.5	-161.514
1467.15	-162.719
1470.8	-160.383
1474.45	-161.394
1478.1	-160.717
1481.75	-158.825
1485.4	-157.431
1489.05	-159.27
1492.7	-158.925
1496.35	-156.192
1500	-154.366
1503.65	-154.866
1507.3	-153.058
1510.95	-153.782
1514.6	-153.444
1518.25	-151.583
1521.9	-152.746
1525.55	-151.114
1529.2	-151.441
1532.85	-149.685
1536.5	-148.59
1540.15	-148.593
1543.8	-148.213
1547.45	-148.071
1551.09	-147.724
1554.74	-146.096
1558.39	-145.827
1562.04	-143.282
1565.69	-142.956
1569.34	-140.45
1572.99	-138.554
1576.64	-140.051
1580.29	-139.106
1583.94	-139.773
1587.59	-138.48
1591.24	-135.236
1594.89	-135.739
1598.54	-134.001
1602.19	-134.869
1605.84	-134.947
1609.49	-134.825
1613.14	-131.646
1616.79	-133.588
1620.44	-131.04
1624.09	-130.73
1627.74	-130.551
1631.39	-130.523
1635.04	-130.196
1638.69	-128.831
1642.34	-131.061
1645.99	-128.72
1649.64	-127.848
1653.28	-127.802
1656.93	-124.467
1660.58	-126.332
1664.23	-126.131
1667.88	-125.112
1671.53	-121.756
1675.18	-121.646
1678.83	-121.278
1682.48	-121.121
1686.13	-120.322
1689.78	-120.809
1693.43	-120.321
1697.08	-118.309
1700.73	-116.999
1704.38	-117.827
1708.03	-117.395
1711.68	-116.53
1715.33	-118.348
1718.98	-116.935
1722.63	-115.246
1726.28	-114.844
1729.93	-116.625
1733.58	-115.259
1737.23	-115.838
1740.88	-115.582
1744.53	-115.933
1748.18	-118.069
1751.82	-117.093
1755.47	-121.437
1759.12	-123.745
1762.77	-121.113
1766.42	-120.295
1770.07	-121.006
1773.72	-124.18
1777.37	-122.129
1781.02	-121.364
1784.67	-122.267
1788.32	-123.957
1791.97	-121.327
1795.62	-121.111
1799.27	-119.526
1802.92	-118.134
1806.57	-120.589
1810.22	-118.399
1813.87	-119.594
1817.52	-119.008
1821.17	-117.627
1824.82	-120.642
1828.47	-118.8
1832.12	-117.554
1835.77	-117.684
1839.42	-116.615
1843.07	-116.577
1846.72	-115.767
1850.36	-117.151
1854.01	-118.488
1857.66	-119.981
1861.31	-117.347
1864.96	-116.139
1868.61	-117.172
1872.26	-118.397
1875.91	-116.997
1879.56	-115.882
1883.21	-115.017
1886.86	-114.224
1890.51	-116.675
1894.16	-118.611
1897.81	-114.405
1901.46	-113.57
1905.11	-113.734
1908.76	-115.013
1912.41	-113.276
1916.06	-114.108
1919.71	-113.115
1923.36	-112.542
1927.01	-114.015
1930.66	-112.885
1934.31	-113.522
1937.96	-113.815
1941.61	-110.26
1945.26	-110.106
1948.91	-112.119
1952.55	-111.58
1956.2	-111.791
1959.85	-112.293
1963.5	-111.232
1967.15	-110.491
1970.8	-111.036
1974.45	-109.813
1978.1	-109.829
1981.75	-109.353
1985.4	-106.977
1989.05	-105.208
1992.7	-107.896
1996.35	-104.001
2000	-106.472

File: Owen CNT_5.txt
1000	-177.408
1005.45	-171.962
1010.9	-173.363
1016.35	-174.834
1021.8	-174.417
1027.25	-170.896
1032.7	-171.542
1038.15	-173.111
1043.6	-174.278
1049.05	-175.657
1054.5	-174.317
1059.95	-171.957
1065.4	-175.375
1070.84	-173.093
1076.29	-171.753
1081.74	-173.299
1087.19	-172.527
1092.64	-174.849
1098.09	-173.562
1103.54	-171.056
1108.99	-173.559
1114.44	-170.558
1119.89	-171.437
1125.34	-172.609
1130.79	-171.494
1136.24	-171.153
1141.69	-171.277
1147.14	-172.733
1152.59	-170.682
1158.04	-170.839
1163.49	-171.167
1168.94	-172.6
1174.39	-172.052
1179.84	-171.128
1185.29	-173.472
1190.74	-172.314
1196.19	-169.728
1201.63	-170.298
1207.08	-171
1212.53	-169.439
1217.98	-172.249
1223.43	-169.822
1228.88	-171.603
1234.33	-168.001
1239.78	-170.425
1245.23	-170.127
1250.68	-170.342
1256.13	-170.036
1261.58	-169.569
1267.03	-168.779
1272.48	-170.959
1277.93	-168.318
1283.38	-167.681
1288.83	-167.651
1294.28	-168.139
1299.73	-169.1
1305.18	-167.594
1310.63	-168.365
1316.08	-169.701
1321.53	-166.364
1326.98	-164.205
1332.43	-163.326
1337.87	-161.004
1343.32	-164.17
1348.77	-159.854
1354.22	-162.62
1359.67	-159.288
1365.12	-162.538
1370.57	-161.526
1376.02	-164.429
1381.47	-163.841
1386.92	-166.186
1392.37	-167.949
1397.82	-166.653
1403.27	-169.148
1408.72	-171.079
1414.17	-164.881
1419.62	-168.934
1425.07	-167.192
1430.52	-168.292
1435.97	-171.65
1441.42	-169.943
1446.87	-169.895
1452.32	-168.381
1457.77	-165.769
1463.22	-167.4
1468.66	-167.633
1474.11	-168.054
1479.56	-168.73
1485.01	-168.72
1490.46	-168.113
1495.91	-169.37
1501.36	-168.8
1506.81	-168.6
1512.26	-166.587
1517.71	-166.062
1523.16	-166.706
1528.61	-166.079
1534.06	-166.554
1539.51	-167.539
1544.96	-166.497
1550.41	-163.746
1555.86	-163.8
1561.31	-164.404
1566.76	-160.695
1572.21	-161.811
1577.66	-158.44
1583.11	-157.618
1588.56	-155.94
1594.01	-156.745
1599.46	-154.687
1604.9	-155.288
1610.35	-158.528
1615.8	-160.954
1621.25	-158.804
1626.7	-157.004
1632.15	-162.961
1637.6	-165.356
1643.05	-161.946
1648.5	-161.828
1653.95	-165.246
1659.4	-167.97
1664.85	-165.348
1670.3	-167.967
1675.75	-166.735
1681.2	-164.574
1686.65	-166.065
1692.1	-167.214
1697.55	-166.698
1703	-168.013
1708.45	-166.018
1713.9	-163.294
1719.35	-165.981
1724.8	-165.435
1730.25	-165.467
1735.69	-166.871
1741.14	-164.863
1746.59	-166.4
1752.04	-164.167
1757.49	-166.014
1762.94	-162.892
1768.39	-163.436
1773.84	-166.384
1779.29	-162.703
1784.74	-163.132
1790.19	-161.979
1795.64	-164.159
1801.09	-165.593
1806.54	-163.842
1811.99	-163.512
1817.44	-165.083
1822.89	-164.867
1828.34	-163.51
1833.79	-163.347
1839.24	-160.474
1844.69	-161.28
1850.14	-161.8
1855.59	-162.389
1861.04	-161.748
1866.48	-164.312
1871.93	-163.893
1877.38	-161.633
1882.83	-165.2
1888.28	-161.194
1893.73	-159.226
1899.18	-159.69
1904.63	-160.535
1910.08	-160.453
1915.53	-159.13
1920.98	-160.668
1926.43	-160.756
1931.88	-159.918
1937.33	-164.012
1942.78	-159.946
1948.23	-161.185
1953.68	-160.2
1959.13	-158.689
1964.58	-160.59
1970.03	-158.026
1975.48	-161.121
1980.93	-160.798
1986.38	-159.198
1991.83	-160.247
1997.28	-158.656
2000	-160.095

File: Si wafer - n dopeAs_1.txt
200	95.3025
209.927	99.7615
219.853	106.632
229.78	131.577
239.706	131.37
249.633	142.074
259.559	142.684
269.486	151.365
279.413	160.208
289.339	176.661
299.266	237.083
309.192	173.196
319.119	149.985
329.045	140.442
338.972	124.339
348.898	118.262
358.825	110.792
368.752	102.511
378.678	100.112
388.605	88.5313
398.531	89.1119
408.458	89.6443
418.384	88.2742
428.311	92.6178
438.238	78.58
448.164	65.8878
458.091	50.0048
468.017	64.5601
477.944	74.9142
487.87	106.894
497.797	162.899
507.723	440.442
517.65	14147.3
527.577	561.162
537.503	176.187
547.43	94.385
557.356	63.8361
567.283	51.7928
577.209	43.4764
587.136	45.2595
597.063	47.0007
606.989	54.0029
616.916	66.0956
626.842	64.9722
636.769	58.0927
646.695	58.5515
656.622	66.4524
666.549	66.0708
676.475	63.1753
686.402	62.1476
696.328	50.1386
706.255	49.2644
716.181	49.9245
726.108	51.3118
736.034	50.821
745.961	59.7232
755.888	62.7842
765.814	65.5131
775.741	64.7074
785.667	69.1125
795.594	78.0629
805.52	80.1118
815.447	92.4559
825.374	90.2371
835.3	87.4362
845.227	87.9975
855.153	85.9917
865.08	81.4565
875.006	77.9582
884.933	76.9541
894.859	72.5678
904.786	74.7567
914.713	67.6423
924.639	99.9363
934.566	251.248
944.492	316.654
954.419	321.601
964.345	323.168
974.272	328.432
984.199	306.761
994.125	166.572
1004.05	125.274
1013.98	103.431
1023.9	81.4002
1033.83	69.6823
1043.76	50.0203
1053.68	45.0734
1063.61	42.1295
1073.54	41.9554
1083.46	39.0628
1093.39	38.7375
1103.32	35.4701
1113.24	33.5519
1123.17	34.3924
1133.1	34.1667
1143.02	28.5483
1152.95	29.6831
1162.88	28.4332
1172.8	28.4567
1182.73	26.3322
1192.66	26.2335
1202.58	27.0749
1212.51	25.878
1222.44	28.1914
1232.36	25.5588
1242.29	26.2978
1252.22	25.9117
1262.14	27.3003
1272.07	23.552
1282	26.4106
1291.92	25.7483
1301.85	27.1619
1311.78	25.8704
1321.7	28.258
1331.63	25.7409
1341.55	26.3205
1351.48	28.4028
1361.41	31.355
1371.33	28.1482
1381.26	27.814
1391.19	25.2372
1401.11	25.754
1411.04	26.4966
1420.97	28.8806
1430.89	27.1078
1440.82	28.7686
1450.75	28.0444
1460.67	29.9657
1470.6	28.7059
1480.53	27.3983
1490.45	26.8862
1500.38	27.4135
1510.31	27.9074
1520.23	24.1084
1530.16	24.944
1540.09	27.7619
1550.01	29.5051
1559.94	26.7536
1569.87	28.2653
1579.79	27.5828
1589.72	29.9796
1599.65	32.1583
1609.57	28.9673
1619.5	33.1982
1629.43	31.9207
1639.35	33.5619
1649.28	35.232
1659.2	39.5711
1669.13	43.3646
1679.06	46.433
1688.98	49.26
1698.91	51.444
1708.84	51.7128
1718.76	52.31
1728.69	50.225
1738.62	53.193
1748.54	51.9877
1758.47	52.8696
1768.4	51.7691
1778.32	51.6156
1788.25	52.2732
1798.18	51.5612
1808.1	52.7815
1818.03	49.4056
1827.96	54.134
1837.88	55.026
1847.81	54.4679
1857.74	54.0206
1867.66	54.8079
1877.59	54.3055
1887.52	52.0521
1897.44	55.5573
1907.37	54.7349
1917.3	53.8055
1927.22	55.2943
1937.15	54.6489
1947.08	55.962
1957	55.3367
1966.93	53.0454
1976.85	56.0004
1986.78	55.3035
1996.71	54.4744
2006.63	53.0491
2016.56	57.1212
2026.49	55.6918
2036.41	58.1962
2046.34	55.4295
2056.27	57.8515
2066.19	56.2989
2076.12	59.0836
2086.05	56.6348
2095.97	58.7025
2105.9	56.7716
2115.83	59.6194
2125.75	57.8415
2135.68	58.5695
2145.61	59.8517
2155.53	60.3537
2165.46	60.8765
2175.39	61.5853
2185.31	61.5431
2195.24	61.7971
2205.17	64.1159
2215.09	63.4305
2225.02	64.2481
2234.95	65.3265
2244.87	67.9516
2254.8	67.4044
2264.73	71.1133
2274.65	71.6482
2284.58	75.6912
2294.5	82.2563
2304.43	86.1564
2314.36	90.8108
2324.28	114.072
2334.21	93.5085
2344.14	92.5098
2354.06	88.9957
2363.99	90.3741
2373.92	91.709
2383.84	91.9893
2393.77	93.9346
2403.7	91.523
2413.62	92.4986
2423.55	94.0242
2433.48	91.7898
2443.4	91.0275
2453.33	92.9087
2463.26	91.0185
2473.18	94.3204
2483.11	93.9349
2493.04	94.0828
2502.96	94.0103
2512.89	91.6614
2522.82	93.2174
2532.74	95.1414
2542.67	92.4153
2552.6	94.9816
2562.52	92.1267
2572.45	98.9535
2582.38	96.6237
2592.3	98.0728
2602.23	94.1249
2612.16	93.5
2622.08	96.9403
2632.01	97.241
2641.93	97.8293
2651.86	98.1377
2661.79	98.6514
2671.71	99.0018
2681.64	101.5
2691.57	100.855
2701.49	100.991
2711.42	102.583
2721.35	103.365
2731.27	101.398
2741.2	101.825
2751.13	102.129
2761.05	103.665
2770.98	104.918
2780.91	105.395
2790.83	105.008
2800.76	106.331
2810.69	107.79
2820.61	106.102
2830.54	108.587
2840.47	108.657
2850.39	110.217
2860.32	109.231
2870.25	111.011
2880.17	112.02
2890.1	113.097
2900.03	112.337
2909.95	110.956
2919.88	115.287
2929.8	111.611
2939.73	111.556
2949.66	114.674
2959.58	111.46
2969.51	113.934
2979.44	115.04
2989.36	114.725
2999.29	116.818
3000	113.245

File: Si wafer - n dopeAs_2.txt
200	213.199
210.757	211.888
221.514	239.354
232.271	274.699
243.028	271.769
253.785	284.447
264.542	300.998
275.299	302.069
286.056	333.959
296.813	375.454
307.57	384.677
318.327	313.54
329.084	276.491
339.841	250.633
350.598	237.619
361.355	223.891
372.112	206.838
382.869	191.329
393.625	181.266
404.382	170.161
415.139	168.658
425.896	177.057
436.653	177.617
447.41	142
458.167	106.976
468.924	117.385
479.681	133.346
490.438	187.924
501.195	294.076
511.952	1574.57
522.709	10555.6
533.466	1444.07
544.223	274.34
554.98	150.62
565.737	108.303
576.494	94.1699
587.251	86.7372
598.008	83.8231
608.765	102.422
619.522	125.035
630.279	114.799
641.036	109.316
651.793	111.808
662.55	119.167
673.307	126.634
684.064	109.065
694.821	90.7178
705.578	86.5065
716.335	85.3185
727.092	82.9458
737.849	88.3068
748.606	102.388
759.363	101.634
770.12	108.604
780.876	117.858
791.633	121.463
802.39	129.49
813.147	141.148
823.904	146.313
834.661	136.943
845.418	141.98
856.175	138.003
866.932	141.403
877.689	133.179
888.446	125.585
899.203	130.388
909.96	116.986
920.717	122.885
931.474	223.254
942.231	477.963
952.988	518.127
963.745	518.749
974.502	524.57
985.259	515.484
996.016	330.054
1006.77	195.612
1017.53	139.074
1028.29	108.96
1039.04	74.5509
1049.8	46.4946
1060.56	30.388
1071.31	25.1295
1082.07	21.3673
1092.83	20.8802
1103.59	18.2425
1114.34	15.3111
1125.1	10.0149
1135.86	7.4284
1146.61	6.12491
1157.37	4.60566
1168.13	2.91638
1178.88	-2.18997
1189.64	-1.32174
1200.4	-0.494044
1211.16	-4.05062
1221.91	-3.46964
1232.67	0.238548
1243.43	-5.34464
1254.18	-3.9382
1264.94	-4.36732
1275.7	-4.88486
1286.45	-3.8293
1297.21	-5.99018
1307.97	-0.632823
1318.73	-3.4216
1329.48	-1.83104
1340.24	-3.49951
1351	1.24604
1361.75	1.01262
1372.51	-1.03295
1383.27	-0.277929
1394.02	1.13283
1404.78	0.850646
1415.54	-1.53802
1426.29	-1.25801
1437.05	-1.20154
1447.81	5.49706
1458.57	4.26013
1469.32	-0.017826
1480.08	-0.803716
1490.84	-4.17849
1501.59	-3.59138
1512.35	-3.976
1523.11	-5.49492
1533.86	-8.71496
1544.62	-6.59977
1555.38	9.62087
1566.14	-6.32455
1576.89	-7.25785
1587.65	-9.65078
1598.41	-6.61376
1609.16	-7.95245
1619.92	-6.76121
1630.68	-6.84549
1641.43	-7.87993
1652.19	-6.87342
1662.95	-5.49749
1673.71	-6.41887
1684.46	-9.6467
1695.22	-7.0195
1705.98	-6.59284
1716.73	-7.4888
1727.49	-6.03457
1738.25	-7.13332
1749	-5.65881
1759.76	-3.8745
1770.52	-4.01295
1781.27	-7.95583
1792.03	-3.23827
1802.79	-6.37007
1813.55	-3.71206
1824.3	-7.96344
1835.06	-7.40514
1845.82	-6.60469
1856.57	-6.53407
1867.33	-6.01123
1878.09	-4.97791
1888.84	-2.4156
1899.6	-6.66245
1910.36	-5.76044
1921.12	-2.96874
1931.87	-4.10924
1942.63	-3.29925
1953.39	-3.68578
1964.14	-5.82268
1974.9	-5.91886
1985.66	-1.91948
1996.41	-5.93941
2007.17	-2.01971
2017.93	-1.85257
2028.69	-0.917623
2039.44	-4.22734
2050.2	-1.87807
2060.96	0.134622
2071.71	2.39214
2082.47	0.167301
2093.23	-2.51067
2103.98	-3.0507
2114.74	-2.37673
2125.5	-0.462559
2136.25	0.426539
2147.01	-2.8844
2157.77	-0.301031
2168.53	-2.26125
2179.28	3.9106
2190.04	-1.13921
2200.8	-0.0351465
2211.55	2.85756
2222.31	2.39062
2233.07	5.82616
2243.82	-0.654884
2254.58	1.67132
2265.34	4.15829
2276.1	3.0501
2286.85	4.79782
2297.61	4.95163
2308.37	3.73951
2319.12	8.52271
2329.88	75.698
2340.64	7.14283
2351.39	3.84467
2362.15	7.56301
2372.91	7.78639
2383.67	6.76793
2394.42	10.4067
2405.18	13.2072
2415.94	11.147
2426.69	9.85712
2437.45	13.9888
2448.21	13.9202
2458.96	15.2953
2469.72	15.1439
2480.48	17.6942
2491.24	14.0305
2501.99	16.9981
2512.75	15.5552
2523.51	21.6909
2534.26	15.8918
2545.02	16.4811
2555.78	23
2566.53	19.2718
2577.29	20.5303
2588.05	22.0641
2598.8	22.6483
2609.56	22.0189
2620.32	25.5753
2631.08	23.5842
2641.83	25.8606
2652.59	24.7051
2663.35	28.5927
2674.1	28.7089
2684.86	32.9666
2695.62	34.4455
2706.37	33.3083
2717.13	36.4375
2727.89	37.8246
2738.65	37.9737
2749.4	43.7931
2760.16	43.7832
2770.92	45.243
2781.67	48.5152
2792.43	47.8712
2803.19	56.5939
2813.94	56.8395
2824.7	55.6986
2835.46	63.2199
2846.22	62.7965
2856.97	67.2526
2867.73	75.6974
2878.49	78.3267
2889.24	84.2204
2900	92.6232