Folder: Graphs/Example Data/Raman/Kara/12-20-10/C-Si-Graphene/1 bulk

Note: README.md
# Graphs
A macOS app that manages the organization of data files and graphs them.

Licensed under the MIT licensing terms: https://opensource.org/licenses/MIT

Hildreth wrote the precursor to Graphs, then called GraphBase, during his Ph.D. to help manage the data he was collecting as part of his research on Metal-assisted Chemical Etching of Silicon.  He was becoming overwhelmed by the hundreds of data files he was collecting every week and was inspired by the Papers and iTunes applications on OS X (now macOS) to create an application that managed data.  GraphBase provided an easy template to create a parser, a simple UI to organize data into hiarchical folders, and leveraged the DataGraph framework (http://www.visualdatatools.com/DataGraph/Framework/) for graphing.  DataGraph (http://www.visualdatatools.com/DataGraph/) is an amazing 2D graphing application and you will need to purchase a DataGraph license from Visual Data Tools in order to use Graphs.

Graphs is a rewrite of GraphBase in Swift written by Connor and then re-written again by Hildreth that has been open sourced for use by all.  Please not that you will need a DataGraph license to create the graph templates used by the DataGraph framework underlying Graphs.  Hildreth plans to continue evolving this application.  The next plan improvements are: multithreading for import and parsing using the new Results type in Swift; and begin switching over to SwiftUI for the UI.  Long term, we hope to add support for data analysis and extraction.

# Overview
Graphs is a data management tool that allows you to store your raw data files in a text formate (CSV, tab delimited, etc.) and then have those files parsed and graphed when selected.  Graphs uses the DataGraph fromework 

To use Graphs, first you create an example graph, what we call a Graph Template, in DataGraph.  Format the graph the way you want it to look and make sure that the Data Columns are in the same order as the columns in your data.  Next, you  add your "Graph Template" to Graphs using either the Graph Template Inspector on the right side of Graphs using using the "+" sign on the bottom left of the application.  You can also drag-and-drop the file onto a folder in the Source List.  Once you add a Graph Template, you can assign it to be the default Graph Template for a folder and any sub-folders using the Folder Inspector.

The second step is to make a Paser using the Parser Inspector.  It might be helpful to have an example file already in Graphs (see Step 3) because you can use the Text Inspector to see what lines your Experimental Details, Header, and Data start at.  Add a Parse Template using the + sign in the Parse Inspector's table and give the Parse Template a name.  If your data has experimental details at the top, then select the checkbox and set the starting and ending lines for this information.  If your data has a Header, select the Header checkbox, give it starting and ending line numbers, and then select the type of s

File: CSGbulk1_1.txt
100	100.773
112.793	113.744
125.586	126.892
138.38	147.185
151.173	137.734
163.966	129.047
176.759	124.962
189.552	116.612
202.345	106.634
215.139	107.776
227.932	105.937
240.725	115.351
253.518	116.786
266.311	128.352
279.104	127.645
291.898	137.84
304.691	133.197
317.484	127.364
330.277	124.66
343.07	117.295
355.864	111.289
368.657	112.393
381.45	97.5074
394.243	114.91
407.036	105.3
419.829	108.544
432.623	107.759
445.416	107.303
458.209	113.597
471.002	129.119
483.795	161.966
496.589	216.037
509.382	376.775
522.175	381.365
534.968	133.131
547.761	78.1065
560.554	58.7917
573.348	65.0436
586.141	58.8958
598.934	63.3016
611.727	69.0883
624.52	65.8
637.313	60.6799
650.107	65.7536
662.9	60.6863
675.693	62.6298
688.486	56.3929
701.279	58.5623
714.073	53.4044
726.866	53.5392
739.659	60.088
752.452	54.8473
765.245	60.3262
778.038	61.0549
790.832	64.9408
803.625	75.3373
816.418	68.1581
829.211	62.0874
842.004	70.2131
854.797	66.3897
867.591	73.0725
880.384	77.4288
893.177	70.2347
905.97	81.0487
918.763	79.3403
931.557	90.5382
944.35	90.4546
957.143	90.6367
969.936	84.8877
982.729	73.3629
995.522	74.7792
1008.32	64.1387
1021.11	64.6588
1033.9	72.3855
1046.7	76.5257
1059.49	84.7762
1072.28	78.677
1085.07	81.9528
1097.87	85.1147
1110.66	93.1554
1123.45	100.936
1136.25	105.839
1149.04	124.352
1161.83	137.096
1174.63	149.358
1187.42	160.964
1200.21	176.477
1213.01	184.2
1225.8	203.826
1238.59	223.082
1251.39	235.543
1264.18	251.534
1276.97	274.546
1289.77	283.467
1302.56	302.876
1315.35	330.344
1328.15	352.085
1340.94	348.768
1353.73	365.419
1366.52	370.013
1379.32	337.091
1392.11	325.641
1404.9	298.49
1417.7	277.659
1430.49	262.232
1443.28	250.738
1456.08	241.939
1468.87	238.33
1481.66	235.057
1494.46	231.624
1507.25	240.063
1520.04	235.153
1532.84	250.486
1545.63	265.006
1558.42	297.153
1571.22	345.112
1584.01	398.809
1596.8	409.738
1609.59	392.293
1622.39	306.833
1635.18	227.537
1647.97	171.546
1660.77	130.197
1673.56	102.236
1686.35	82.6932
1699.15	75.3325
1711.94	66.9179
1724.73	60.2397
1737.53	58.7694
1750.32	55.5081
1763.11	47.9156
1775.91	49.2925
1788.7	47.2717
1801.49	44.7837
1814.29	43.6621
1827.08	40.896
1839.87	37.688
1852.67	42.9569
1865.46	43.9483
1878.25	37.4543
1891.04	37.7529
1903.84	35.9527
1916.63	35.7165
1929.42	41.9933
1942.22	42.4942
1955.01	35.9991
1967.8	42.1863
1980.6	37.5725
1993.39	40.749
2006.18	38.4993
2018.98	40.9425
2031.77	40.9605
2044.56	38.6826
2057.36	39.0872
2070.15	40.1843
2082.94	42.822
2095.74	39.7848
2108.53	41.0163
2121.32	38.4179
2134.12	44.5035
2146.91	43.1221
2159.7	40.4694
2172.49	45.2972
2185.29	46.5119
2198.08	45.4566
2210.87	42.3593
2223.67	47.2269
2236.46	46.6017
2249.25	46.6582
2262.05	48.004
2274.84	52.5424
2287.63	51.403
2300.43	54.9615
2313.22	52.1865
2326.01	57.4752
2338.81	58.3348
2351.6	52.2784
2364.39	57.9723
2377.19	58.7843
2389.98	65.2601
2402.77	63.6777
2415.56	67.1887
2428.36	73.3717
2441.15	85.6712
2453.94	79.3931
2466.74	74.7579
2479.53	75.869
2492.32	73.9131
2505.12	80.3526
2517.91	75.3065
2530.7	85.3785
2543.5	82.6107
2556.29	84.6607
2569.08	91.3078
2581.88	86.0944
2594.67	93.896
2607.46	93.039
2620.26	97.9985
2633.05	96.9491
2645.84	103.901
2658.64	103.882
2671.43	105.712
2684.22	107.78
2697.01	102.35
2709.81	110.353
2722.6	112.535
2735.39	112.945
2748.19	108.736
2760.98	108.16
2773.77	114.114
2786.57	110.362
2799.36	125.131
2812.15	123.414
2824.95	129.978
2837.74	122.16
2850.53	113.373
2863.33	121.061
2876.12	112.917
2888.91	126.083
2901.71	122.025
2914.5	124.188
2927.29	128.693
2940.09	132.009
2952.88	125.575
2965.67	132.224
2978.46	121.998
2991.26	119.778
3004.05	118.747
3016.84	122.638
3029.64	118.746
3042.43	111.346
3055.22	108.299
3068.02	117.56
3080.81	110.082
3093.6	108.198
3106.4	107.594
3119.19	117.329
3131.98	109.186
3144.78	120.642
3157.57	109.408
3170.36	109.583
3183.16	110.175
3195.95	110.251
3208.74	111.464
3221.54	116.445
3234.33	105.989
3247.12	106.167
3259.91	105.931
3272.71	103.245
3285.5	103.73
3298.29	110.155
3311.09	102.731
3323.88	106.933
3336.67	98.3932
3349.47	108.036
3362.26	96.4513
3375.05	103.299
3387.85	104.925
3400.64	113.762
3413.43	103.154
3426.23	111.104
3439.02	109.838
3451.81	108.922
3464.61	113.311
3477.4	121.247
3490.19	115.428
3502.99	113.777
3515.78	115.042
3528.57	110.47
3541.36	118.416
3554.16	121.82
3566.95	122.639
3579.74	119.256
3592.54	131.93
3605.33	130.464
3618.12	128.944
3630.92	125.709
3643.71	134.003
3656.5	130.022
3669.3	129.855
3682.09	135.248
3694.88	132.75
3700	142.501

File: CSGbulk1_2.txt
100	131.873
112.793	155.167
125.586	177.658
138.38	200.85
151.173	196.887
163.966	184.374
176.759	169.072
189.552	171.923
202.345	156.904
215.139	150.893
227.932	168.096
240.725	172.968
253.518	177.433
266.311	184.013
279.104	210.914
291.898	221.34
304.691	230.718
317.484	214.164
330.277	196.293
343.07	182.396
355.864	180.097
368.657	176.546
381.45	177.063
394.243	176.384
407.036	159.684
419.829	174.425
432.623	180.585
445.416	176.959
458.209	195.927
471.002	222.402
483.795	295.35
496.589	424.175
509.382	766.051
522.175	632.93
534.968	204.236
547.761	116.875
560.554	101.147
573.348	96.0693
586.141	91.9916
598.934	89.9637
611.727	99.9671
624.52	94.16
637.313	84.7754
650.107	95.5673
662.9	86.6295
675.693	90.2361
688.486	83.2351
701.279	83.3038
714.073	79.4103
726.866	77.3728
739.659	81.8896
752.452	80.9425
765.245	92.2229
778.038	87.8569
790.832	83.2501
803.625	89.227
816.418	89.3532
829.211	87.3977
842.004	92.1708
854.797	103.421
867.591	102.93
880.384	103.394
893.177	114.095
905.97	107.53
918.763	132.618
931.557	138.241
944.35	130.623
957.143	127.768
969.936	112.415
982.729	104.459
995.522	103.84
1008.32	93.283
1021.11	90.8181
1033.9	90.7884
1046.7	88.0356
1059.49	97.4703
1072.28	98.0355
1085.07	93.4981
1097.87	109.772
1110.66	105.19
1123.45	116.319
1136.25	122.296
1149.04	140.187
1161.83	146.253
1174.63	155.92
1187.42	163.236
1200.21	177.391
1213.01	181.519
1225.8	200.38
1238.59	221.422
1251.39	225.86
1264.18	248.511
1276.97	272.683
1289.77	293.85
1302.56	319.694
1315.35	334.772
1328.15	348.564
1340.94	390.58
1353.73	390.107
1366.52	393.032
1379.32	368.501
1392.11	333.104
1404.9	318.025
1417.7	288.621
1430.49	271.263
1443.28	265.776
1456.08	263.449
1468.87	259.27
1481.66	253.175
1494.46	246.115
1507.25	250.073
1520.04	257.719
1532.84	256.607
1545.63	279.012
1558.42	300.645
1571.22	354.757
1584.01	393.024
1596.8	423.902
1609.59	401.113
1622.39	327.196
1635.18	258.206
1647.97	189.703
1660.77	150.825
1673.56	124.586
1686.35	114
1699.15	94.1955
1711.94	89.5692
1724.73	81.1167
1737.53	73.2262
1750.32	65.1947
1763.11	74.7174
1775.91	69.3263
1788.7	67.4227
1801.49	66.4
1814.29	57.1797
1827.08	60.5421
1839.87	59.5898
1852.67	63.1659
1865.46	63.7191
1878.25	56.6763
1891.04	56.182
1903.84	57.482
1916.63	57.7557
1929.42	56
1942.22	58.5433
1955.01	59.6838
1967.8	60.4696
1980.6	53.7998
1993.39	58.9347
2006.18	54.4048
2018.98	57.6012
2031.77	51.9169
2044.56	53.9691
2057.36	60.5522
2070.15	57.3879
2082.94	52.1195
2095.74	53.7007
2108.53	59.7707
2121.32	55.3341
2134.12	58.8246
2146.91	57.0254
2159.7	57.4317
2172.49	60.8813
2185.29	59.1414
2198.08	61.5699
2210.87	67.4181
2223.67	61.914
2236.46	63.3324
2249.25	66.9125
2262.05	61.9473
2274.84	66.9887
2287.63	70.9745
2300.43	68.2895
2313.22	67.792
2326.01	75.5748
2338.81	80.2091
2351.6	74.5201
2364.39	71.2137
2377.19	73.1685
2389.98	79.1304
2402.77	80.5128
2415.56	85.1774
2428.36	86.2256
2441.15	103.935
2453.94	98.6975
2466.74	94.62
2479.53	89.9657
2492.32	97.0141
2505.12	95.9451
2517.91	96.9483
2530.7	101.918
2543.5	104.189
2556.29	106.262
2569.08	109.976
2581.88	111.628
2594.67	106.924
2607.46	111.631
2620.26	110.164
2633.05	117.226
2645.84	124.216
2658.64	126.808
2671.43	121.465
2684.22	124.266
2697.01	122.533
2709.81	128.043
2722.6	128.053
2735.39	130.229
2748.19	133.65
2760.98	137.188
2773.77	135.405
2786.57	137.214
2799.36	138.142
2812.15	131.183
2824.95	140.831
2837.74	133.973
2850.53	130.206
2863.33	140.274
2876.12	143.961
2888.91	152.534
2901.71	149.25
2914.5	155.475
2927.29	152.746
2940.09	149.133
2952.88	157.752
2965.67	159.597
2978.46	147.098
2991.26	147.261
3004.05	142.69
3016.84	128.639
3029.64	137.368
3042.43	128.24
3055.22	126.313
3068.02	138.063
3080.81	128.045
3093.6	138.556
3106.4	137.266
3119.19	138.711
3131.98	128.804
3144.78	137.251
3157.57	134.375
3170.36	137.166
3183.16	138.621
3195.95	136.83
3208.74	136.678
3221.54	127.645
3234.33	142.554
3247.12	138.652
3259.91	130.584
3272.71	134.257
3285.5	126.064
3298.29	128.584
3311.09	130.479
3323.88	127.794
3336.67	120.075
3349.47	126.324
3362.26	134.74
3375.05	132.364
3387.85	135.476
3400.64	131.309
3413.43	128.484
3426.23	137.186
3439.02	136.369
3451.81	138.827
3464.61	135.15
3477.4	142.436
3490.19	139.49
3502.99	132.795
3515.78	138.86
3528.57	150.931
3541.36	149.15
3554.16	141.469
3566.95	154.863
3579.74	149.825
3592.54	148.433
3605.33	143.81
3618.12	154.757
3630.92	153.506
3643.71	154.147
3656.5	152.435
3669.3	163.46
3682.09	154.756
3694.88	163.649
3700	157.421

File: CSGbulk1_3.txt
100	148.561
112.793	178.6
125.586	221.716
138.38	233.461
151.173	224.481
163.966	209.08
176.759	204.576
189.552	178.402
202.345	180.039
215.139	181.961
227.932	190.992
240.725	209.449
253.518	215.545
266.311	242.928
279.104	259.564
291.898	275.659
304.691	271.91
317.484	255.355
330.277	239.038
343.07	228.596
355.864	218.264
368.657	207.454
381.45	205.425
394.243	205.916
407.036	206.181
419.829	203.107
432.623	214.826
445.416	216.879
458.209	238.675
471.002	278.245
483.795	373.005
496.589	559.717
509.382	1072.12
522.175	820.542
534.968	256.679
547.761	132.235
560.554	108.36
573.348	105.291
586.141	108.36
598.934	106.096
611.727	111.564
624.52	106.88
637.313	104.186
650.107	103.303
662.9	107.338
675.693	94.3516
688.486	92.9054
701.279	87.7434
714.073	80.6327
726.866	84.6875
739.659	90.2343
752.452	104.041
765.245	94.1016
778.038	96.3294
790.832	93.7139
803.625	94.0725
816.418	111.661
829.211	104.513
842.004	106.658
854.797	113.921
867.591	113.2
880.384	121.221
893.177	126.82
905.97	145.777
918.763	158
931.557	160.227
944.35	154.678
957.143	148.273
969.936	143.703
982.729	123.407
995.522	108.339
1008.32	101.834
1021.11	95.9701
1033.9	100.657
1046.7	94.0628
1059.49	95.2612
1072.28	97.1585
1085.07	105.36
1097.87	101.41
1110.66	103.905
1123.45	108.515
1136.25	115.368
1149.04	125.464
1161.83	137.512
1174.63	140.431
1187.42	148.127
1200.21	165.263
1213.01	172.148
1225.8	184.944
1238.59	205.751
1251.39	210.625
1264.18	224.626
1276.97	254.05
1289.77	268.272
1302.56	296.332
1315.35	306.504
1328.15	337.246
1340.94	349.652
1353.73	358.874
1366.52	357.788
1379.32	348.847
1392.11	318.532
1404.9	305.71
1417.7	281.078
1430.49	243.759
1443.28	245.166
1456.08	234.855
1468.87	225.317
1481.66	234.936
1494.46	226.662
1507.25	227.783
1520.04	228.369
1532.84	241.208
1545.63	254.175
1558.42	284.365
1571.22	315.478
1584.01	361.341
1596.8	380.681
1609.59	380.567
1622.39	326.674
1635.18	245.18
1647.97	177.004
1660.77	147.898
1673.56	131.88
1686.35	109.874
1699.15	96.1191
1711.94	88.7589
1724.73	89.7564
1737.53	78.9913
1750.32	71.1298
1763.11	75.8918
1775.91	76.1631
1788.7	68.8064
1801.49	66.0791
1814.29	66.0987
1827.08	64.7881
1839.87	59.4542
1852.67	61.1635
1865.46	66.2809
1878.25	64.9676
1891.04	63.8539
1903.84	57.482
1916.63	66.016
1929.42	64.5066
1942.22	59.6423
1955.01	62.4833
1967.8	63.135
1980.6	69.1836
1993.39	60.3631
2006.18	64.0131
2018.98	67.757
2031.77	62.5011
2044.56	62.9579
2057.36	66.2374
2070.15	63.3389
2082.94	63.2579
2095.74	60.1325
2108.53	61.1305
2121.32	66.6037
2134.12	67.1507
2146.91	63.417
2159.7	69.2088
2172.49	63.2073
2185.29	66.3762
2198.08	70.5649
2210.87	70.7766
2223.67	75.8517
2236.46	66.8963
2249.25	69.3968
2262.05	71.5618
2274.84	76.9108
2287.63	73.0493
2300.43	81.9188
2313.22	79.0315
2326.01	82.4405
2338.81	88.1634
2351.6	83.1155
2364.39	83.3006
2377.19	82.799
2389.98	86.4442
2402.77	95.7321
2415.56	94.3211
2428.36	99.3458
2441.15	116.301
2453.94	111.863
2466.74	105.369
2479.53	107.24
2492.32	97.1247
2505.12	100.323
2517.91	110.863
2530.7	110.406
2543.5	114.09
2556.29	109.046
2569.08	115.262
2581.88	121.373
2594.67	120.888
2607.46	121.489
2620.26	128.658
2633.05	127.725
2645.84	134.819
2658.64	127.193
2671.43	136.452
2684.22	139.494
2697.01	135.481
2709.81	141.747
2722.6	140.217
2735.39	140.356
2748.19	146.287
2760.98	142.49
2773.77	142.098
2786.57	149.492
2799.36	145.684
2812.15	143.666
2824.95	140.964
2837.74	146
2850.53	155.502
2863.33	154.198
2876.12	160.299
2888.91	162.081
2901.71	169.67
2914.5	155.919
2927.29	162.104
2940.09	168.194
2952.88	162.205
2965.67	167.017
2978.46	158.726
2991.26	160.35
3004.05	150.536
3016.84	157.355
3029.64	157.269
3042.43	154.63
3055.22	160.845
3068.02	154.307
3080.81	152.958
3093.6	154.261
3106.4	153.483
3119.19	158.555
3131.98	152.908
3144.78	144.375
3157.57	152.245
3170.36	151.873
3183.16	159.757
3195.95	157.505
3208.74	153.895
3221.54	155.321
3234.33	149.769
3247.12	159.39
3259.91	157.865
3272.71	153.335
3285.5	149.143
3298.29	155.916
3311.09	153.967
3323.88	152.445
3336.67	148.86
3349.47	160.566
3362.26	151.301
3375.05	159.435
3387.85	154.277
3400.64	157.614
3413.43	157.809
3426.23	161.414
3439.02	160.519
3451.81	157.688
3464.61	169.421
3477.4	167.139
3490.19	161.203
3502.99	169.488
3515.78	180.609
3528.57	177.56
3541.36	173.874
3554.16	173.538
3566.95	182.636
3579.74	181.48
3592.54	176.197
3605.33	193.097
3618.12	175.191
3630.92	192.231
3643.71	183.999
3656.5	184.85
3669.3	187.767
3682.09	187.362
3694.88	196.661
3700	188.518

File: CSGbulk1_4.txt
100	331.83
112.793	392.087
125.586	475.922
138.38	514.841
151.173	518.196
163.966	480.457
176.759	441.32
189.552	417.037
202.345	392.743
215.139	387.922
227.932	416.71
240.725	470.885
253.518	487.847
266.311	529.353
279.104	567.003
291.898	622.384
304.691	633.771
317.484	581.837
330.277	567.078
343.07	527.193
355.864	501.891
368.657	479.686
381.45	468.28
394.243	460.258
407.036	482.31
419.829	468.738
432.623	490.728
445.416	508.468
458.209	557.835
471.002	694.564
483.795	884.797
496.589	1320.51
509.382	2552.2
522.175	1830.14
534.968	569.076
547.761	314.675
560.554	263.012
573.348	240.911
586.141	237.563
598.934	254.016
611.727	267.556
624.52	253.24
637.313	236.823
650.107	233.544
662.9	237.279
675.693	211.665
688.486	213.105
701.279	210.555
714.073	189.237
726.866	204.52
739.659	201.169
752.452	210.818
765.245	215.626
778.038	223.478
790.832	225.86
803.625	233.616
816.418	237.457
829.211	241.023
842.004	239.768
854.797	237.493
867.591	256.138
880.384	267.699
893.177	290.152
905.97	323.339
918.763	358.738
931.557	383.537
944.35	378.065
957.143	352.154
969.936	310.545
982.729	258.407
995.522	235.806
1008.32	212.282
1021.11	203.734
1033.9	192.479
1046.7	191.2
1059.49	197.556
1072.28	194.734
1085.07	194.441
1097.87	204.386
1110.66	211.324
1123.45	224.47
1136.25	237.955
1149.04	246.64
1161.83	261.982
1174.63	277.446
1187.42	292.436
1200.21	306.451
1213.01	334.866
1225.8	346.063
1238.59	371.951
1251.39	390.917
1264.18	434.585
1276.97	450.013
1289.77	477.297
1302.56	508.896
1315.35	558.894
1328.15	603.227
1340.94	639.283
1353.73	656.274
1366.52	660.291
1379.32	626.232
1392.11	575.238
1404.9	545.226
1417.7	502.006
1430.49	481.217
1443.28	454.215
1456.08	449.357
1468.87	430.644
1481.66	428.321
1494.46	427.363
1507.25	428.14
1520.04	438.436
1532.84	442.262
1545.63	458.301
1558.42	514.861
1571.22	590.312
1584.01	669.285
1596.8	720.466
1609.59	679.614
1622.39	586.465
1635.18	445.704
1647.97	350.832
1660.77	303.168
1673.56	256.219
1686.35	230.363
1699.15	201.49
1711.94	180.59
1724.73	183.64
1737.53	183.233
1750.32	160.13
1763.11	160.108
1775.91	165.697
1788.7	157.001
1801.49	156.926
1814.29	150.062
1827.08	150
1839.87	159.888
1852.67	151.107
1865.46	146.473
1878.25	151.409
1891.04	153.852
1903.84	141.376
1916.63	146.545
1929.42	146.319
1942.22	149.184
1955.01	154.9
1967.8	148.711
1980.6	149.414
1993.39	151.672
2006.18	151.889
2018.98	153.691
2031.77	156.238
2044.56	147.602
2057.36	150.533
2070.15	151.522
2082.94	154.982
2095.74	147.421
2108.53	148.899
2121.32	154.228
2134.12	155.358
2146.91	154.216
2159.7	161.237
2172.49	164.163
2185.29	156.745
2198.08	166.495
2210.87	163.33
2223.67	160.483
2236.46	163.944
2249.25	166.943
2262.05	181.821
2274.84	170.406
2287.63	179.624
2300.43	172.374
2313.22	186.032
2326.01	185.866
2338.81	200.6
2351.6	189.496
2364.39	188.216
2377.19	193.005
2389.98	189.738
2402.77	193.252
2415.56	213.873
2428.36	221.866
2441.15	244.404
2453.94	236.934
2466.74	225.938
2479.53	228.377
2492.32	225.905
2505.12	229.047
2517.91	232.618
2530.7	237.466
2543.5	243.711
2556.29	247.657
2569.08	250.059
2581.88	255.304
2594.67	261.259
2607.46	259.783
2620.26	269.702
2633.05	276.848
2645.84	268.626
2658.64	268.871
2671.43	284.183
2684.22	292.426
2697.01	292.221
2709.81	295.021
2722.6	293.093
2735.39	297.741
2748.19	289.715
2760.98	301.114
2773.77	296.613
2786.57	298.002
2799.36	310.514
2812.15	310.755
2824.95	308.04
2837.74	321.134
2850.53	319.977
2863.33	316.34
2876.12	321.771
2888.91	332.525
2901.71	340.326
2914.5	347.582
2927.29	350.402
2940.09	353.747
2952.88	347.124
2965.67	342.877
2978.46	335.96
2991.26	325.564
3004.05	328.151
3016.84	338.314
3029.64	334.428
3042.43	330.892
3055.22	328.565
3068.02	335.998
3080.81	339.916
3093.6	341.013
3106.4	313.557
3119.19	339.728
3131.98	331.179
3144.78	340.561
3157.57	345.315
3170.36	338.514
3183.16	347.78
3195.95	348.798
3208.74	349.805
3221.54	360.585
3234.33	352.969
3247.12	349.323
3259.91	347.414
3272.71	346.116
3285.5	335.393
3298.29	356.885
3311.09	344.122
3323.88	338.86
3336.67	358.354
3349.47	352.017
3362.26	355.082
3375.05	343.431
3387.85	358.024
3400.64	369.57
3413.43	365.354
3426.23	364.349
3439.02	365.041
3451.81	386.951
3464.61	380.768
3477.4	389.227
3490.19	382.132
3502.99	379.071
3515.78	376.672
3528.57	382.748
3541.36	396.698
3554.16	398.6
3566.95	407.43
3579.74	416.064
3592.54	415.755
3605.33	412.614
3618.12	427.739
3630.92	434.183
3643.71	429.637
3656.5	439.741
3669.3	426.152
3682.09	436.836
3694.88	444.664
3700	443.731

File: CSGbulk1_5.txt
100	335.476
112.793	410.627
125.586	495.686
138.38	542.786
151.173	519.27
163.966	490.465
176.759	469.596
189.552	433.968
202.345	407.442
215.139	402.622
227.932	445.706
240.725	496.632
253.518	501.159
266.311	555.758
279.104	595.279
291.898	653.133
304.691	684.55
317.484	626.8
330.277	577.47
343.07	550.505
355.864	521.125
368.657	510.003
381.45	500.471
394.243	488.505
407.036	472.687
419.829	504.462
432.623	515.641
445.416	519.009
458.209	589.484
471.002	740.406
483.795	965.928
496.589	1452.6
509.382	2806.82
522.175	1994.5
534.968	593.597
547.761	329.689
560.554	270.268
573.348	247.988
586.141	253.818
598.934	265.615
611.727	266.534
624.52	256.4
637.313	247.137
650.107	244.573
662.9	226.999
675.693	224.278
688.486	212.421
701.279	211.561
714.073	202.599
726.866	201.087
739.659	211.431
752.452	219.517
765.245	229.7
778.038	228.17
790.832	241.831
803.625	229.686
816.418	234.117
829.211	245.358
842.004	245.313
854.797	248.003
867.591	255.906
880.384	264.306
893.177	292.268
905.97	329.22
918.763	369.055
931.557	386.576
944.35	381.335
957.143	365.453
969.936	316.979
982.729	268.354
995.522	235.589
1008.32	215.174
1021.11	196.59
1033.9	198.072
1046.7	190.51
1059.49	189.594
1072.28	190.408
1085.07	181.242
1097.87	192.76
1110.66	199.07
1123.45	199.473
1136.25	212.193
1149.04	231.585
1161.83	243.765
1174.63	246.338
1187.42	267.2
1200.21	282.294
1213.01	299.487
1225.8	326.189
1238.59	341.288
1251.39	360.65
1264.18	388.656
1276.97	398.615
1289.77	436.418
1302.56	464.01
1315.35	508.076
1328.15	534.879
1340.94	587.04
1353.73	611.56
1366.52	587.174
1379.32	553.808
1392.11	510.552
1404.9	482.984
1417.7	453.192
1430.49	439.47
1443.28	407.757
1456.08	393.254
1468.87	411.938
1481.66	382.614
1494.46	387.89
1507.25	372.331
1520.04	380.771
1532.84	400.206
1545.63	404.339
1558.42	452.636
1571.22	518.244
1584.01	593.986
1596.8	651.485
1609.59	635.717
1622.39	543.647
1635.18	424.63
1647.97	323.809
1660.77	264.429
1673.56	236.681
1686.35	211.872
1699.15	189.941
1711.94	185.882
1724.73	180.389
1737.53	174.534
1750.32	160.897
1763.11	152.596
1775.91	154.452
1788.7	156.625
1801.49	155.567
1814.29	152.113
1827.08	148.709
1839.87	152.864
1852.67	149.748
1865.46	149.44
1878.25	148.788
1891.04	150.796
1903.84	153.683
1916.63	151.493
1929.42	149.995
1942.22	150.231
1955.01	154.585
1967.8	149.494
1980.6	145.399
1993.39	153.68
2006.18	154.184
2018.98	158.683
2031.77	161.113
2044.56	155.559
2057.36	163.14
2070.15	156.384
2082.94	158.335
2095.74	156.129
2108.53	157.23
2121.32	163.538
2134.12	157.359
2146.91	168.927
2159.7	158.128
2172.49	171.185
2185.29	165.925
2198.08	165.856
2210.87	170.526
2223.67	172.684
2236.46	167.176
2249.25	179.458
2262.05	178.491
2274.84	175.78
2287.63	177.483
2300.43	182.886
2313.22	178.383
2326.01	184.517
2338.81	200.899
2351.6	192.245
2364.39	198.162
2377.19	200.429
2389.98	203.666
2402.77	201.869
2415.56	203.779
2428.36	226.719
2441.15	252.474
2453.94	237.258
2466.74	235.031
2479.53	221.883
2492.32	237.125
2505.12	227.603
2517.91	237.022
2530.7	246.675
2543.5	242.359
2556.29	241.431
2569.08	252.147
2581.88	247.863
2594.67	258.043
2607.46	260.164
2620.26	259.359
2633.05	261.467
2645.84	276.569
2658.64	277.649
2671.43	272.591
2684.22	285.858
2697.01	299.559
2709.81	291.44
2722.6	282.723
2735.39	300.965
2748.19	287.172
2760.98	295.359
2773.77	306.17
2786.57	298.498
2799.36	299.347
2812.15	315.831
2824.95	304.997
2837.74	312.285
2850.53	301.707
2863.33	321.375
2876.12	325.685
2888.91	331.894
2901.71	340.959
2914.5	339.982
2927.29	328.854
2940.09	348.345
2952.88	343.983
2965.67	344.666
2978.46	333.559
2991.26	332.193
3004.05	331.031
3016.84	336.807
3029.64	335.716
3042.43	335.274
3055.22	335.677
3068.02	333.257
3080.81	326.565
3093.6	321.063
3106.4	326.99
3119.19	331.225
3131.98	330.382
3144.78	334.73
3157.57	335.888
3170.36	341.607
3183.16	352.63
3195.95	355.354
3208.74	345.154
3221.54	347.369
3234.33	347.383
3247.12	348.448
3259.91	343.881
3272.71	345.562
3285.5	346.233
3298.29	349.376
3311.09	341.715
3323.88	360.042
3336.67	354.373
3349.47	354.759
3362.26	349.491
3375.05	365.379
3387.85	369.836
3400.64	365.713
3413.43	376.923
3426.23	368.128
3439.02	369.699
3451.81	364.482
3464.61	390.697
3477.4	382.425
3490.19	395.929
3502.99	385.97
3515.78	380.785
3528.57	412.817
3541.36	399.798
3554.16	395.415
3566.95	404.45
3579.74	414.363
3592.54	420.97
3605.33	432.301
3618.12	418.179
3630.92	440.628
3643.71	434.092
3656.5	441.359
3669.3	433.437
3682.09	447.674
3694.88	446.858
3700	449.914