Folder: Graphs/Example Data/Raman/Kara/12-20-10/C-Si-Graphene/1 bulk (part 2)

File: CSGbulk1_6.txt
100	336.53
112.793	410.089
125.586	488.843
138.38	557.745
151.173	540.463
163.966	529.015
176.759	477.499
189.552	434
202.345	407.821
215.139	393.263
227.932	437.918
240.725	496.532
253.518	537.197
266.311	560.766
279.104	605.058
291.898	675.588
304.691	717.268
317.484	636.041
330.277	591.745
343.07	555.701
355.864	537.809
368.657	529.385
381.45	500.943
394.243	494.697
407.036	475.319
419.829	513.987
432.623	532.164
445.416	543.634
458.209	624.914
471.002	748.178
483.795	1037.59
496.589	1528.87
509.382	2940.34
522.175	2071.56
534.968	603.555
547.761	340.161
560.554	246.493
573.348	246.683
586.141	244.464
598.934	257.502
611.727	267.085
624.52	246.16
637.313	244.028
650.107	246.734
662.9	231.789
675.693	222.943
688.486	204.386
701.279	193.479
714.073	206.127
726.866	192.341
739.659	197.112
752.452	201.094
765.245	215.577
778.038	222.822
790.832	229.922
803.625	226.412
816.418	234.242
829.211	243.981
842.004	242.7
854.797	242.221
867.591	251.496
880.384	275.65
893.177	287.093
905.97	331.979
918.763	381.844
931.557	391.313
944.35	380.766
957.143	359.717
969.936	303.335
982.729	253.593
995.522	224.055
1008.32	197.822
1021.11	185.176
1033.9	180.333
1046.7	170.814
1059.49	174.782
1072.28	173.047
1085.07	163.345
1097.87	174.724
1110.66	187.533
1123.45	183.606
1136.25	195.859
1149.04	212.079
1161.83	222.956
1174.63	225.807
1187.42	235.855
1200.21	254.271
1213.01	264.552
1225.8	285.733
1238.59	298.228
1251.39	317.882
1264.18	338.585
1276.97	375.97
1289.77	393.988
1302.56	431.113
1315.35	452.498
1328.15	505.211
1340.94	533.213
1353.73	543.658
1366.52	528.537
1379.32	509.174
1392.11	470.17
1404.9	453.914
1417.7	418.81
1430.49	383.265
1443.28	365.427
1456.08	351.703
1468.87	354.783
1481.66	347.692
1494.46	344.589
1507.25	342.247
1520.04	344.382
1532.84	354.862
1545.63	369.446
1558.42	415.157
1571.22	462.305
1584.01	524.731
1596.8	579.484
1609.59	577.535
1622.39	491.194
1635.18	374.537
1647.97	302.333
1660.77	237.403
1673.56	208.266
1686.35	186.837
1699.15	165.658
1711.94	156.831
1724.73	154.071
1737.53	142.769
1750.32	142.027
1763.11	137.629
1775.91	142.949
1788.7	137.6
1801.49	128.842
1814.29	134.88
1827.08	133.655
1839.87	139.763
1852.67	128.098
1865.46	135.727
1878.25	134.246
1891.04	132.002
1903.84	130.54
1916.63	135.705
1929.42	124.181
1942.22	135.1
1955.01	130.734
1967.8	131.46
1980.6	129.471
1993.39	128.638
2006.18	135.463
2018.98	129.54
2031.77	137.48
2044.56	128.726
2057.36	132.293
2070.15	135.165
2082.94	148.095
2095.74	141.682
2108.53	136.661
2121.32	139.333
2134.12	132.848
2146.91	142.415
2159.7	145.742
2172.49	143.108
2185.29	148.585
2198.08	149.118
2210.87	147.357
2223.67	150.185
2236.46	145.561
2249.25	158.034
2262.05	153.047
2274.84	155.506
2287.63	153.705
2300.43	161.591
2313.22	163.67
2326.01	165.742
2338.81	180.644
2351.6	167.92
2364.39	164.157
2377.19	171.15
2389.98	176.194
2402.77	178.449
2415.56	189.588
2428.36	196.005
2441.15	223.709
2453.94	220.686
2466.74	200.193
2479.53	204.22
2492.32	207.859
2505.12	211.943
2517.91	218.195
2530.7	211.009
2543.5	214.885
2556.29	222.535
2569.08	221.879
2581.88	225.4
2594.67	224.719
2607.46	237.897
2620.26	237.882
2633.05	241.048
2645.84	241.991
2658.64	248.8
2671.43	249.548
2684.22	255.657
2697.01	264.309
2709.81	251.189
2722.6	256.012
2735.39	259.896
2748.19	255.865
2760.98	268.081
2773.77	267.808
2786.57	270.675
2799.36	264.213
2812.15	275.378
2824.95	274.218
2837.74	295.43
2850.53	280.724
2863.33	286.156
2876.12	292.247
2888.91	288.662
2901.71	288.154
2914.5	295.015
2927.29	304.981
2940.09	313.212
2952.88	310.348
2965.67	306.096
2978.46	308.553
2991.26	292.482
3004.05	307.78
3016.84	288.128
3029.64	293.48
3042.43	289.05
3055.22	300.162
3068.02	292.968
3080.81	297.768
3093.6	296.613
3106.4	302.353
3119.19	290.262
3131.98	297.644
3144.78	299.473
3157.57	310.45
3170.36	302.452
3183.16	303.847
3195.95	301.305
3208.74	300.83
3221.54	315.265
3234.33	310.696
3247.12	305.475
3259.91	311.037
3272.71	301.15
3285.5	296.16
3298.29	304.333
3311.09	309.144
3323.88	320.792
3336.67	309.762
3349.47	318.692
3362.26	314.533
3375.05	321.934
3387.85	317.251
3400.64	319.235
3413.43	329.418
3426.23	333.268
3439.02	330.363
3451.81	327.019
3464.61	340.966
3477.4	335.255
3490.19	351.562
3502.99	348.751
3515.78	356.483
3528.57	342.016
3541.36	362.244
3554.16	356.605
3566.95	366.218
3579.74	363.253
3592.54	366.952
3605.33	364.201
3618.12	375.481
3630.92	383.894
3643.71	391.566
3656.5	390.528
3669.3	381.646
3682.09	398.164
3694.88	397.596
3700	405.817