Folder: Graphs/Example Data/Raman/Kara/12-20-10/C-Si-Graphene/2 bulk

Note: README.md
# Graphs
A macOS app that manages the organization of data files and graphs them.

Licensed under the MIT licensing terms: https://opensource.org/licenses/MIT

Hildreth wrote the precursor to Graphs, then called GraphBase, during his Ph.D. to help manage the data he was collecting as part of his research on Metal-assisted Chemical Etching of Silicon.  He was becoming overwhelmed by the hundreds of data files he was collecting every week and was inspired by the Papers and iTunes applications on OS X (now macOS) to create an application that managed data.  GraphBase provided an easy template to create a parser, a simple UI to organize data into hiarchical folders, and leveraged the DataGraph framework (http://www.visualdatatools.com/DataGraph/Framework/) for graphing.  DataGraph (http://www.visualdatatools.com/DataGraph/) is an amazing 2D graphing application and you will need to purchase a DataGraph license from Visual Data Tools in order to use Graphs.

Graphs is a rewrite of GraphBase in Swift written by Connor and then re-written again by Hildreth that has been open sourced for use by all.  Please not that you will need a DataGraph license to create the graph templates used by the DataGraph framework underlying Graphs.  Hildreth plans to continue evolving this application.  The next plan improvements are: multithreading for import and parsing using the new Results type in Swift; and begin switching over to SwiftUI for the UI.  Long term, we hope to add support for data analysis and extraction.

# Overview
Graphs is a data management tool that allows you to store your raw data files in a text formate (CSV, tab delimited, etc.) and then have those files parsed and graphed when selected.  Graphs uses the DataGraph fromework 

To use Graphs, first you create an example graph, what we call a Graph Template, in DataGraph.  Format the graph the way you want it to look and make sure that the Data Columns are in the same order as the columns in your data.  Next, you  add your "Graph Template" to Graphs using either the Graph Template Inspector on the right side of Graphs using using the "+" sign on the bottom left of the application.  You can also drag-and-drop the file onto a folder in the Source List.  Once you add a Graph Template, you can assign it to be the default Graph Template for a folder and any sub-folders using the Folder Inspector.

The second step is to make a Paser using the Parser Inspector.  It might be helpful to have an example file already in Graphs (see Step 3) because you can use the Text Inspector to see what lines your Experimental Details, Header, and Data start at.  Add a Parse Template using the + sign in the Parse Inspector's table and give the Parse Template a name.  If your data has experimental details at the top, then select the checkbox and set the starting and ending lines for this information.  If your data has a Header, select the Header checkbox, give it starting and ending line numbers, and then select the type of s

File: CSGbulk2_1.txt
100	189.325
112.793	214.842
125.586	238.256
138.38	249.741
151.173	238.745
163.966	228.577
176.759	216.886
189.552	199.154
202.345	206.134
215.139	197.531
227.932	202.118
240.725	202.928
253.518	204.372
266.311	205.185
279.104	220.371
291.898	216.783
304.691	243.579
317.484	221.777
330.277	208.641
343.07	201.099
355.864	200.225
368.657	195.477
381.45	196.37
394.243	179.95
407.036	181.767
419.829	188.838
432.623	191.774
445.416	189.867
458.209	188.092
471.002	194.124
483.795	229.52
496.589	267.27
509.382	396.65
522.175	868.253
534.968	245.395
547.761	156.412
560.554	139.383
573.348	124.103
586.141	127.188
598.934	128.889
611.727	133.029
624.52	132.28
637.313	128.162
650.107	130.463
662.9	134.575
675.693	131.391
688.486	119.316
701.279	130.91
714.073	127.598
726.866	124.908
739.659	132.536
752.452	123.883
765.245	135.421
778.038	125.378
790.832	144.15
803.625	138.33
816.418	132.646
829.211	145.091
842.004	144.739
854.797	150.073
867.591	149.894
880.384	141.084
893.177	144.83
905.97	147.27
918.763	147.21
931.557	165.474
944.35	169.691
957.143	164.681
969.936	154.886
982.729	157.748
995.522	147.6
1008.32	144.333
1021.11	152.735
1033.9	164.625
1046.7	169.465
1059.49	168.062
1072.28	180.422
1085.07	194.543
1097.87	189.245
1110.66	215.295
1123.45	242.765
1136.25	257.738
1149.04	303.732
1161.83	329.218
1174.63	380.197
1187.42	402.455
1200.21	433.971
1213.01	467.46
1225.8	512.822
1238.59	541.46
1251.39	579.682
1264.18	626.119
1276.97	670.876
1289.77	747.861
1302.56	775.659
1315.35	829.559
1328.15	889.29
1340.94	916.595
1353.73	879.477
1366.52	889.879
1379.32	845.067
1392.11	790.963
1404.9	736.103
1417.7	693.394
1430.49	642.672
1443.28	618.851
1456.08	596.279
1468.87	601.222
1481.66	582.06
1494.46	580.426
1507.25	566.327
1520.04	570.18
1532.84	593.401
1545.63	631.006
1558.42	698.302
1571.22	838.022
1584.01	992.991
1596.8	1117.42
1609.59	1111.09
1622.39	885.317
1635.18	632.912
1647.97	444.567
1660.77	349.459
1673.56	252.93
1686.35	203.585
1699.15	182.056
1711.94	166.308
1724.73	128.78
1737.53	120.744
1750.32	120.405
1763.11	111.415
1775.91	110.6
1788.7	101.464
1801.49	106.649
1814.29	96.9242
1827.08	92.5526
1839.87	95.3594
1852.67	93.7809
1865.46	92.4397
1878.25	96.1122
1891.04	81.4988
1903.84	92.5887
1916.63	85.7215
1929.42	85.8774
1942.22	83.4164
1955.01	94.9675
1967.8	85.7418
1980.6	82.9194
1993.39	83.1473
2006.18	90.9175
2018.98	90.2984
2031.77	82.5475
2044.56	82.9962
2057.36	89.3794
2070.15	86.1817
2082.94	88.9683
2095.74	79.8812
2108.53	87.4959
2121.32	85.3711
2134.12	88.9481
2146.91	85.606
2159.7	88.2713
2172.49	92.8154
2185.29	86.7543
2198.08	90.962
2210.87	91.8733
2223.67	87.6101
2236.46	90.243
2249.25	99.8198
2262.05	91.0799
2274.84	103.109
2287.63	99.5282
2300.43	100.36
2313.22	104.185
2326.01	102.005
2338.81	120.378
2351.6	111.013
2364.39	113.265
2377.19	116.955
2389.98	117.347
2402.77	121.089
2415.56	137.475
2428.36	148.51
2441.15	176.14
2453.94	164.826
2466.74	156.193
2479.53	151.121
2492.32	157.655
2505.12	151.145
2517.91	164.866
2530.7	169.445
2543.5	173.637
2556.29	181.625
2569.08	173.029
2581.88	183.221
2594.67	189.229
2607.46	192.604
2620.26	194.88
2633.05	196.368
2645.84	200.687
2658.64	206.02
2671.43	211.846
2684.22	205.529
2697.01	206.562
2709.81	221.615
2722.6	220.218
2735.39	219.014
2748.19	223.64
2760.98	241.392
2773.77	223.674
2786.57	230.944
2799.36	227.996
2812.15	231.19
2824.95	236.766
2837.74	246.48
2850.53	237.546
2863.33	251.122
2876.12	247.571
2888.91	246.655
2901.71	251.082
2914.5	257.546
2927.29	245.845
2940.09	253.579
2952.88	249.962
2965.67	238.018
2978.46	226.161
2991.26	218.875
3004.05	211.01
3016.84	210.87
3029.64	201.22
3042.43	192.908
3055.22	203.858
3068.02	196.088
3080.81	189.118
3093.6	182.827
3106.4	183.596
3119.19	182.766
3131.98	173.338
3144.78	173.859
3157.57	172.843
3170.36	177.685
3183.16	176.404
3195.95	169.905
3208.74	160.905
3221.54	162.345
3234.33	166.431
3247.12	147.637
3259.91	140.962
3272.71	139.814
3285.5	131.624
3298.29	124.248
3311.09	127.123
3323.88	109.656
3336.67	118.691
3349.47	120.258
3362.26	116.314
3375.05	117.297
3387.85	122.269
3400.64	126.322
3413.43	123.739
3426.23	124.559
3439.02	124.456
3451.81	126.414
3464.61	125.685
3477.4	119.895
3490.19	119.137
3502.99	129.329
3515.78	119.642
3528.57	116.481
3541.36	126.386
3554.16	123.371
3566.95	126.241
3579.74	127.216
3592.54	119.34
3605.33	120.891
3618.12	131.408
3630.92	120.904
3643.71	127.655
3656.5	126.017
3669.3	127.601
3682.09	138.056
3694.88	127.512
3700	133.999

File: CSGbulk2_2.txt
100	192.213
112.793	215.385
125.586	231.852
138.38	257.904
151.173	245.874
163.966	225.794
176.759	205.082
189.552	189.971
202.345	202.729
215.139	186.814
227.932	188.323
240.725	202.968
253.518	197.408
266.311	212.657
279.104	207.77
291.898	225.001
304.691	228.6
317.484	220.856
330.277	218.205
343.07	205.5
355.864	213.794
368.657	195.907
381.45	202.964
394.243	195.902
407.036	184.268
419.829	186.575
432.623	188.774
445.416	188.594
458.209	177.273
471.002	198.715
483.795	235.238
496.589	267.835
509.382	412.027
522.175	880.999
534.968	246.305
547.761	148.943
560.554	137.145
573.348	130.406
586.141	131.173
598.934	128.934
611.727	124.623
624.52	121.72
637.313	122.997
650.107	133.04
662.9	139.016
675.693	127.821
688.486	129.067
701.279	126.383
714.073	121.585
726.866	126.548
739.659	129.501
752.452	126.138
765.245	125.266
778.038	129.157
790.832	132.154
803.625	139.137
816.418	143.912
829.211	138.512
842.004	149.092
854.797	144.069
867.591	148.787
880.384	147.874
893.177	142.655
905.97	149.173
918.763	150.267
931.557	157.271
944.35	162.353
957.143	165.295
969.936	161.259
982.729	151.748
995.522	147.596
1008.32	142.223
1021.11	152.629
1033.9	162.428
1046.7	156.687
1059.49	162.068
1072.28	174.407
1085.07	186
1097.87	199.341
1110.66	218.629
1123.45	225.032
1136.25	254.071
1149.04	304.895
1161.83	347.929
1174.63	368.074
1187.42	415.8
1200.21	440.157
1213.01	467.958
1225.8	501.259
1238.59	540.769
1251.39	575.445
1264.18	629.886
1276.97	661.189
1289.77	707.826
1302.56	767.123
1315.35	829.446
1328.15	878.034
1340.94	910.858
1353.73	894.999
1366.52	890.945
1379.32	841.122
1392.11	788.765
1404.9	727.109
1417.7	691.072
1430.49	637.721
1443.28	611.381
1456.08	594.63
1468.87	591.498
1481.66	566.361
1494.46	567.691
1507.25	557.724
1520.04	550.15
1532.84	567.713
1545.63	632.889
1558.42	704.687
1571.22	814.38
1584.01	975.157
1596.8	1101.96
1609.59	1063.32
1622.39	876.669
1635.18	621.317
1647.97	437.875
1660.77	336.607
1673.56	256.503
1686.35	217.021
1699.15	179.431
1711.94	160.133
1724.73	145.543
1737.53	118.274
1750.32	114.692
1763.11	103.71
1775.91	106.13
1788.7	101.038
1801.49	100.877
1814.29	98.6555
1827.08	95.4579
1839.87	94.4677
1852.67	100.542
1865.46	93.2382
1878.25	94.978
1891.04	83.5056
1903.84	96.365
1916.63	86.908
1929.42	92.0053
1942.22	83.4375
1955.01	85.5812
1967.8	82.1635
1980.6	82.623
1993.39	84.2259
2006.18	89.78
2018.98	82.7072
2031.77	83.3076
2044.56	86.9443
2057.36	87.5281
2070.15	84.979
2082.94	88.0189
2095.74	84.2519
2108.53	84.9149
2121.32	83.99
2134.12	79.8242
2146.91	85.9167
2159.7	86.9279
2172.49	87.0962
2185.29	89.5823
2198.08	91.3631
2210.87	90.625
2223.67	88.3917
2236.46	87.9331
2249.25	95.3757
2262.05	92.0396
2274.84	95.5573
2287.63	98.3575
2300.43	98.9133
2313.22	101.064
2326.01	100.41
2338.81	118.97
2351.6	109.835
2364.39	113.109
2377.19	110.938
2389.98	120.857
2402.77	127.255
2415.56	130.616
2428.36	140.577
2441.15	176.638
2453.94	152.061
2466.74	150.709
2479.53	154.066
2492.32	149.913
2505.12	156.896
2517.91	163.464
2530.7	168.013
2543.5	169.074
2556.29	174.647
2569.08	186.704
2581.88	182.053
2594.67	182.692
2607.46	194.245
2620.26	191.326
2633.05	192.363
2645.84	203.364
2658.64	205.496
2671.43	204.149
2684.22	205.879
2697.01	215.943
2709.81	216.299
2722.6	218.763
2735.39	213.015
2748.19	219.121
2760.98	220.735
2773.77	215.339
2786.57	231.475
2799.36	226.877
2812.15	233.7
2824.95	236.293
2837.74	241.734
2850.53	235.18
2863.33	245.799
2876.12	245.428
2888.91	247.891
2901.71	245.617
2914.5	247.72
2927.29	252.411
2940.09	250.827
2952.88	247.18
2965.67	241.677
2978.46	231.038
2991.26	223.994
3004.05	213.682
3016.84	206.647
3029.64	195.753
3042.43	202.184
3055.22	199.47
3068.02	190.569
3080.81	185.367
3093.6	177.746
3106.4	185.885
3119.19	171.63
3131.98	173.808
3144.78	177.402
3157.57	177.543
3170.36	172.787
3183.16	170.606
3195.95	174.804
3208.74	173.024
3221.54	165.316
3234.33	155.121
3247.12	147.592
3259.91	142.676
3272.71	132.902
3285.5	132.737
3298.29	125.581
3311.09	134.936
3323.88	122.488
3336.67	126.135
3349.47	125.613
3362.26	119.889
3375.05	112.904
3387.85	121.059
3400.64	115.789
3413.43	115.382
3426.23	123.86
3439.02	123.996
3451.81	126.077
3464.61	125.771
3477.4	113.501
3490.19	124.512
3502.99	123.941
3515.78	114.481
3528.57	119.299
3541.36	116.149
3554.16	128.714
3566.95	124.823
3579.74	120.867
3592.54	130.309
3605.33	128.817
3618.12	124.819
3630.92	130.167
3643.71	128.261
3656.5	125.165
3669.3	124.981
3682.09	130.048
3694.88	129.735
3700	135.582

File: CSGbulk2_3.txt
100	184.153
112.793	217.162
125.586	243.482
138.38	247.061
151.173	242.312
163.966	224.66
176.759	199.9
189.552	189.93
202.345	194.818
215.139	192.434
227.932	189.008
240.725	199.176
253.518	198.384
266.311	206.005
279.104	204.422
291.898	229.245
304.691	217.015
317.484	208.817
330.277	209.348
343.07	200.799
355.864	196.431
368.657	186.474
381.45	191.356
394.243	179.735
407.036	189.131
419.829	188.475
432.623	193.703
445.416	182.245
458.209	182.541
471.002	202.183
483.795	232.812
496.589	259.783
509.382	408.248
522.175	869.96
534.968	241.981
547.761	152.845
560.554	137.716
573.348	125.816
586.141	127.334
598.934	125.305
611.727	126.915
624.52	136.92
637.313	126.869
650.107	127.05
662.9	128.414
675.693	124.884
688.486	121.084
701.279	119.089
714.073	124.999
726.866	120.968
739.659	122.503
752.452	126.891
765.245	124.507
778.038	130.296
790.832	129.596
803.625	134.85
816.418	130.706
829.211	138.688
842.004	146.184
854.797	144.873
867.591	141.909
880.384	148.981
893.177	141.785
905.97	148.389
918.763	145.582
931.557	155.978
944.35	166.127
957.143	161.8
969.936	165.507
982.729	148.667
995.522	158.641
1008.32	148.056
1021.11	150.085
1033.9	146.064
1046.7	161.18
1059.49	168.523
1072.28	179.026
1085.07	181.13
1097.87	193.37
1110.66	213.905
1123.45	228.764
1136.25	262.519
1149.04	291.083
1161.83	333.478
1174.63	361.446
1187.42	395.218
1200.21	428.785
1213.01	460.924
1225.8	498.728
1238.59	538.319
1251.39	565.541
1264.18	603.563
1276.97	671.27
1289.77	705.382
1302.56	781.721
1315.35	833.07
1328.15	874.318
1340.94	911.384
1353.73	898.883
1366.52	869.138
1379.32	828.025
1392.11	775.312
1404.9	726.608
1417.7	676.613
1430.49	632.581
1443.28	611.637
1456.08	592.994
1468.87	582.942
1481.66	580.519
1494.46	567.903
1507.25	538.237
1520.04	560.351
1532.84	578.738
1545.63	631.981
1558.42	681.076
1571.22	817.857
1584.01	963.181
1596.8	1086.78
1609.59	1081
1622.39	863.367
1635.18	614.543
1647.97	431.599
1660.77	338.632
1673.56	259.977
1686.35	215.075
1699.15	192.921
1711.94	156.61
1724.73	140.831
1737.53	128.313
1750.32	104.125
1763.11	104.972
1775.91	104.211
1788.7	99.5498
1801.49	100.623
1814.29	103.588
1827.08	97.2237
1839.87	80.3219
1852.67	91.517
1865.46	88.3513
1878.25	93.5018
1891.04	85.8809
1903.84	86.6817
1916.63	88.7692
1929.42	78.3574
1942.22	88.4827
1955.01	83.5661
1967.8	79.6206
1980.6	72.0564
1993.39	79.9464
2006.18	87.3212
2018.98	84.1027
2031.77	83.009
2044.56	81.772
2057.36	78.2399
2070.15	77.7198
2082.94	81.0664
2095.74	86.5481
2108.53	89.2759
2121.32	85.2273
2134.12	85.2061
2146.91	85.0333
2159.7	84.5896
2172.49	84.9246
2185.29	89.3989
2198.08	87.2875
2210.87	88.0612
2223.67	88.3077
2236.46	90.5269
2249.25	93.8274
2262.05	95.2442
2274.84	98.0399
2287.63	97.6016
2300.43	98.5518
2313.22	95.8559
2326.01	105.679
2338.81	112.495
2351.6	104.559
2364.39	109.638
2377.19	108.212
2389.98	113.322
2402.77	121.039
2415.56	129.363
2428.36	135.484
2441.15	168.283
2453.94	157.524
2466.74	152.816
2479.53	157.355
2492.32	148.612
2505.12	156.883
2517.91	160.586
2530.7	167.117
2543.5	168.688
2556.29	170.286
2569.08	165.21
2581.88	180.127
2594.67	183.478
2607.46	190.85
2620.26	196.093
2633.05	199.791
2645.84	197.972
2658.64	200.05
2671.43	204.129
2684.22	211.03
2697.01	209.814
2709.81	212.815
2722.6	213.521
2735.39	213.71
2748.19	218.85
2760.98	222.665
2773.77	225.874
2786.57	227.021
2799.36	229.207
2812.15	244.291
2824.95	233.872
2837.74	235.047
2850.53	237.921
2863.33	246.326
2876.12	242.507
2888.91	243.68
2901.71	249.963
2914.5	248.574
2927.29	245.646
2940.09	245.84
2952.88	247.096
2965.67	235.745
2978.46	217.238
2991.26	223.921
3004.05	217.507
3016.84	215.58
3029.64	207.274
3042.43	192.49
3055.22	195.035
3068.02	188.749
3080.81	184.772
3093.6	180.74
3106.4	184.923
3119.19	171.84
3131.98	179.087
3144.78	171.244
3157.57	177.265
3170.36	165.477
3183.16	177.777
3195.95	173.664
3208.74	170.051
3221.54	158.854
3234.33	156.266
3247.12	144.479
3259.91	145.332
3272.71	127.274
3285.5	135.973
3298.29	118.797
3311.09	123.743
3323.88	116.804
3336.67	118.13
3349.47	126.19
3362.26	106.867
3375.05	108.021
3387.85	118.272
3400.64	113.777
3413.43	111.196
3426.23	120.687
3439.02	116.807
3451.81	124.657
3464.61	121.607
3477.4	117.244
3490.19	118.279
3502.99	120.936
3515.78	119.598
3528.57	113.814
3541.36	113.196
3554.16	119.496
3566.95	121.401
3579.74	121.1
3592.54	123.135
3605.33	126.546
3618.12	128.859
3630.92	124.403
3643.71	122.406
3656.5	127.901
3669.3	123.715
3682.09	131.873
3694.88	131.707
3700	123.694

File: CSGbulk2_4.txt
100	83.3563
112.793	93.5894
125.586	96.8182
138.38	107.94
151.173	105.168
163.966	100.163
176.759	85.5588
189.552	76.6703
202.345	76.0845
215.139	83.9856
227.932	79.2248
240.725	87.1722
253.518	87.3343
266.311	96.1873
279.104	87.3509
291.898	89.7597
304.691	99.1518
317.484	88.6598
330.277	86.2666
343.07	90.8034
355.864	89.9176
368.657	79.9704
381.45	74.8987
394.243	75.5385
407.036	76.9658
419.829	70.5314
432.623	76.5488
445.416	81.4628
458.209	76.8556
471.002	78.4076
483.795	98.9482
496.589	124.701
509.382	197.318
522.175	402.417
534.968	103.931
547.761	58.372
560.554	46.6612
573.348	47.1545
586.141	47.6958
598.934	44.9927
611.727	38.5117
624.52	45.48
637.313	42.1892
650.107	47.3203
662.9	48.2404
675.693	44.6075
688.486	43.6808
701.279	44.5944
714.073	52.1646
726.866	39.7728
739.659	43.7493
752.452	44.948
765.245	45.9295
778.038	52.1941
790.832	50.3954
803.625	53.7337
816.418	51.0693
829.211	56.9121
842.004	54.3577
854.797	58.2208
867.591	50.6869
880.384	58.2717
893.177	60.2735
905.97	52.1897
918.763	60.7506
931.557	55.9103
944.35	68.8779
957.143	68.1909
969.936	67.8727
982.729	67.8289
995.522	58.2634
1008.32	56.5148
1021.11	54.1797
1033.9	62.704
1046.7	66.6785
1059.49	71.2703
1072.28	66.1034
1085.07	72.8227
1097.87	79.8278
1110.66	88.1971
1123.45	100.512
1136.25	109.078
1149.04	127.543
1161.83	149.686
1174.63	169.559
1187.42	188.127
1200.21	204.124
1213.01	204.701
1225.8	240.869
1238.59	240.356
1251.39	266.022
1264.18	281.13
1276.97	313.839
1289.77	339.624
1302.56	355.783
1315.35	394.747
1328.15	411.678
1340.94	434.892
1353.73	434.516
1366.52	433.521
1379.32	395.78
1392.11	375.861
1404.9	339.827
1417.7	333.844
1430.49	299.126
1443.28	279.172
1456.08	285.079
1468.87	275.314
1481.66	269.093
1494.46	261.403
1507.25	262.116
1520.04	265.734
1532.84	275.738
1545.63	284.865
1558.42	324.161
1571.22	390.684
1584.01	465.566
1596.8	525.915
1609.59	520.997
1622.39	423.017
1635.18	297.741
1647.97	213.002
1660.77	159.412
1673.56	112.434
1686.35	89.6546
1699.15	73.3776
1711.94	58.6667
1724.73	50.9891
1737.53	48.7038
1750.32	40.3083
1763.11	41.7798
1775.91	36.9704
1788.7	38.5011
1801.49	36.8861
1814.29	35.4122
1827.08	29.6223
1839.87	29.3083
1852.67	36.2207
1865.46	26.7558
1878.25	30.6775
1891.04	26.1393
1903.84	27.188
1916.63	26.9987
1929.42	27.7293
1942.22	26.6471
1955.01	26.1995
1967.8	26.2468
1980.6	26.034
1993.39	25.7832
2006.18	28.4228
2018.98	28.9638
2031.77	24.4364
2044.56	28.2704
2057.36	28.9548
2070.15	27.0506
2082.94	25.3389
2095.74	28.3328
2108.53	28.3761
2121.32	27.1531
2134.12	28.6736
2146.91	25.4959
2159.7	26.736
2172.49	29.2669
2185.29	32.2007
2198.08	30.0409
2210.87	29.8957
2223.67	34.2363
2236.46	28.8365
2249.25	26.4744
2262.05	33.8955
2274.84	33.9351
2287.63	33.8745
2300.43	34.8707
2313.22	37.9191
2326.01	34.2874
2338.81	47.2282
2351.6	41.6432
2364.39	40.7666
2377.19	42.4323
2389.98	46.2129
2402.77	48.1758
2415.56	55.261
2428.36	60.2683
2441.15	76.8951
2453.94	65.3468
2466.74	64.8994
2479.53	64.9289
2492.32	66.6995
2505.12	65.4936
2517.91	68.914
2530.7	72.0859
2543.5	79.7839
2556.29	76.3294
2569.08	76.1134
2581.88	80.1896
2594.67	79.5056
2607.46	87.6656
2620.26	82.8287
2633.05	90.0023
2645.84	88.294
2658.64	87.4253
2671.43	93.1299
2684.22	94.1403
2697.01	101.905
2709.81	98.1869
2722.6	100.311
2735.39	98.4595
2748.19	98.6921
2760.98	106.103
2773.77	98.4496
2786.57	102.02
2799.36	99.2278
2812.15	105.931
2824.95	99.9356
2837.74	114.267
2850.53	110.19
2863.33	109.815
2876.12	111.714
2888.91	113.755
2901.71	113.562
2914.5	116.667
2927.29	112.46
2940.09	116.094
2952.88	114.592
2965.67	110.467
2978.46	99.1535
2991.26	96.6219
3004.05	95.9048
3016.84	94.631
3029.64	88.6736
3042.43	87.1583
3055.22	82.8556
3068.02	86.1278
3080.81	83.8914
3093.6	77.2966
3106.4	80.4327
3119.19	76.5096
3131.98	76.5596
3144.78	70.412
3157.57	76.0095
3170.36	68.7557
3183.16	80.5031
3195.95	72.8968
3208.74	72.4366
3221.54	71.7044
3234.33	69.9331
3247.12	61.0297
3259.91	59.4402
3272.71	57.5181
3285.5	56.8804
3298.29	52.2417
3311.09	47.5038
3323.88	55.2213
3336.67	45.4479
3349.47	52.4317
3362.26	50.9494
3375.05	51.0596
3387.85	51.2401
3400.64	50.0215
3413.43	50.5989
3426.23	51.4915
3439.02	50.7156
3451.81	51.93
3464.61	44.9777
3477.4	42.9187
3490.19	48.106
3502.99	57.9005
3515.78	44.8867
3528.57	46.6666
3541.36	49.7175
3554.16	48.3526
3566.95	53.741
3579.74	50.7231
3592.54	50.5538
3605.33	51.3873
3618.12	48.2527
3630.92	58.784
3643.71	54.7764
3656.5	54.6694
3669.3	53.1798
3682.09	57.1177
3694.88	55.3963
3700	51.2674