Folder: Graphs/Example Data/Silver Reactive Inks/XRD/XRD

Note: README.md
# Graphs
A macOS app that manages the organization of data files and graphs them.

Licensed under the MIT licensing terms: https://opensource.org/licenses/MIT

Hildreth wrote the precursor to Graphs, then called GraphBase, during his Ph.D. to help manage the data he was collecting as part of his research on Metal-assisted Chemical Etching of Silicon.  He was becoming overwhelmed by the hundreds of data files he was collecting every week and was inspired by the Papers and iTunes applications on OS X (now macOS) to create an application that managed data.  GraphBase provided an easy template to create a parser, a simple UI to organize data into hiarchical folders, and leveraged the DataGraph framework (http://www.visualdatatools.com/DataGraph/Framework/) for graphing.  DataGraph (http://www.visualdatatools.com/DataGraph/) is an amazing 2D graphing application and you will need to purchase a DataGraph license from Visual Data Tools in order to use Graphs.

Graphs is a rewrite of GraphBase in Swift written by Connor and then re-written again by Hildreth that has been open sourced for use by all.  Please not that you will need a DataGraph license to create the graph templates used by the DataGraph framework underlying Graphs.  Hildreth plans to continue evolving this application.  The next plan improvements are: multithreading for import and parsing using the new Results type in Swift; and begin switching over to SwiftUI for the UI.  Long term, we hope to add support for data analysis and extraction.

# Overview
Graphs is a data management tool that allows you to store your raw data files in a text formate (CSV, tab delimited, etc.) and then have those files parsed and graphed when selected.  Graphs uses the DataGraph fromework 

To use Graphs, first you create an example graph, what we call a Graph Template, in DataGraph.  Format the graph the way you want it to look and make sure that the Data Columns are in the same order as the columns in your data.  Next, you  add your "Graph Template" to Graphs using either the Graph Template Inspector on the right side of Graphs using using the "+" sign on the bottom left of the application.  You can also drag-and-drop the file onto a folder in the Source List.  Once you add a Graph Template, you can assign it to be the default Graph Template for a folder and any sub-folders using the Folder Inspector.

The second step is to make a Paser using the Parser Inspector.  It might be helpful to have an example file already in Graphs (see Step 3) because you can use the Text Inspector to see what lines your Experimental Details, Header, and Data start at.  Add a Parse Template using the + sign in the Parse Inspector's table and give the Parse Template a name.  If your data has experimental details at the top, then select the checkbox and set the starting and ending lines for this information.  If your data has a Header, select the Header checkbox, give it starting and ending line numbers, and then select the type of s

File: silver 60C.csv
[Measurement conditions]
Sample identification,
Comment - 1,"Configuration=Powder Diffraction, Owner=User-1, Creation date=6/3/2009 8:49:36 AM"
Comment - 2,"Goniometer=PW3050/65 (Theta/2Theta); Minimum step size 2Theta:0.0001; Minimum step size Omega:0.0001"
Comment - 3,"Sample stage=MRD Cradle; Minimum step size Phi:0.01; Minimum step size Chi:0.01; Minimum step size X:0.01; Minimum step size Y:0.01; Minimum step size Z:0.001"
Comment - 4,"Diffractometer system=XPERT-PRO"
Comment - 5,"Measurement program=C:\PANalytical\Data Collector\Programs\powder_scan_49.xrdmp, Identifier={12387B94-FF5E-46B4-B2C7-B6F75F9A12C1}"
Anode material,Cu
K-Alpha1 wavelength,1.5406
K-Alpha2 wavelength,1.54443
Ratio K-Alpha2/K-Alpha1,0.500
Divergence slit,Fixed,0.38mm
Monochromator used,NO
Generator voltage, 45
Tube current, 40
File date and time,08/Apr/2015 15:29
Unit cell,
h k l, 0 0 0
Scan axis,Gonio
Scan range,20,80.0102
Scan step size,0.0376004
No. of points, 1596
Scan type,CONTINUOUS
Phi,0.00
Psi,0.00
X,0.00
Y,0.00
Z,6.947
Time per step,63.500
[Scan points]
Angle,Intensity
20.0188,231.0
20.2444,195.0
20.47,164.0
20.6956,189.0
20.9212,183.0
21.1468,230.0
21.3724,209.0
21.598,215.0
21.8236,223.0
22.0492,231.0
22.2748,193.0
22.5004,221.0
22.726,190.0
22.9516,195.0
23.1772,197.0
23.4028,203.0
23.6284,211.0
23.854,213.0
24.0796,192.0
24.3052,213.0
24.5308,229.0
24.7564,210.0
24.982,201.0
25.2076,179.0
25.4333,216.0
25.6589,202.0
25.8845,184.0
26.1101,190.0
26.3357,178.0
26.5613,202.0
26.7869,193.0
27.0125,225.0
27.2381,189.0
27.4637,165.0
27.6893,183.0
27.9149,166.0
28.1405,187.0
28.3661,172.0
28.5917,170.0
28.8173,163.0
29.0429,164.0
29.2685,166.0
29.4941,183.0
29.7197,172.0
29.9453,171.0
30.1709,147.0
30.3965,160.0
30.6221,166.0
30.8477,126.0
31.0733,161.0
31.2989,152.0
31.5245,134.0
31.7501,134.0
31.9757,150.0
32.2013,145.0
32.4269,148.0
32.6525,128.0
32.8781,119.0
33.1037,119.0
33.3293,131.0
33.5549,143.0
33.7805,124.0
34.0061,113.0
34.2317,146.0
34.4573,135.0
34.6829,135.0
34.9085,113.0
35.1341,122.0
35.3597,117.0
35.5853,138.0
35.8109,123.0
36.0366,127.0
36.2622,159.0
36.4878,135.0
36.7134,118.0
36.939,143.0
37.1646,136.0
37.3902,140.0
37.6158,203.0
37.8414,328.0
38.067,2818.0
38.2926,664.0
38.5182,231.0
38.7438,188.0
38.9694,159.0
39.195,130.0
39.4206,123.0
39.6462,120.0
39.8718,125.0
40.0974,117.0
40.323,122.0
40.5486,131.0
40.7742,118.0
40.9998,119.0
41.2254,92.0
41.451,99.0
41.6766,117.0
41.9022,97.0
42.1278,95.0
42.3534,108.0
42.579,96.0
42.8046,106.0
43.0302,131.0
43.2558,115.0
43.4814,119.0
43.707,146.0
43.9326,190.0
44.1582,535.0
44.3838,975.0
44.6094,224.0
44.835,148.0
45.0606,128.0
45.2862,124.0
45.5118,94.0
45.7374,93.0
45.963,95.0
46.1886,91.0
46.4142,91.0
46.6399,97.0
46.8655,85.0
47.0911,85.0
47.3167,75.0
47.5423,81.0
47.7679,82.0
47.9935,70.0
48.2191,82.0
48.4447,70.0
48.6703,86.0
48.8959,68.0
49.1215,82.0
49.3471,75.0
49.5727,63.0
49.7983,94.0
50.0239,81.0
50.2495,68.0
50.4751,74.0
50.7007,80.0
50.9263,67.0
51.1519,58.0
51.3775,69.0
51.6031,61.0
51.8287,66.0
52.0543,81.0
52.2799,57.0
52.5055,58.0
52.7311,53.0
52.9567,83.0
53.1823,75.0
53.4079,63.0
53.6335,75.0
53.8591,59.0
54.0847,54.0
54.3103,66.0
54.5359,82.0
54.7615,74.0
54.9871,52.0
55.2127,70.0
55.4383,49.0
55.6639,61.0
55.8895,66.0
56.1151,58.0
56.3407,78.0
56.5663,68.0
56.7919,56.0
57.0175,50.0
57.2432,55.0
57.4688,54.0
57.6944,56.0
57.92,66.0
58.1456,60.0
58.3712,60.0
58.5968,60.0
58.8224,49.0
59.048,68.0
59.2736,54.0
59.4992,56.0
59.7248,62.0
59.9504,52.0
60.176,54.0
60.4016,66.0
60.6272,47.0
60.8528,56.0
61.0784,60.0
61.304,54.0
61.5296,83.0
61.7552,126.0
61.9808,76.0
62.2064,59.0
62.432,55.0
62.6576,75.0
62.8832,75.0
63.1088,67.0
63.3344,66.0
63.56,59.0
63.7856,59.0
64.0112,93.0
64.2368,192.0
64.4624,735.0
64.688,334.0
64.9136,108.0
65.1392,91.0
65.3648,75.0
65.5904,61.0
65.816,71.0
66.0416,60.0
66.2672,73.0
66.4928,257.0
66.7184,280.0
66.944,295.0
67.1696,270.0
67.3952,299.0
67.6208,298.0
67.8465,334.0
68.0721,347.0
68.2977,424.0
68.5233,636.0
68.7489,1915.0
68.9745,4873.0
69.2001,17155.0
69.4257,5251.0
69.6513,1128.0
69.8769,603.0
70.1025,449.0
70.3281,395.0
70.5537,328.0
70.7793,283.0
71.0049,247.0
71.2305,248.0
71.4561,205.0
71.6817,178.0
71.9073,188.0
72.1329,204.0
72.3585,177.0
72.5841,156.0
72.8097,157.0
73.0353,159.0
73.2609,149.0
73.4865,138.0
73.7121,157.0
73.9377,146.0
74.1633,133.0
74.3889,132.0
74.6145,128.0
74.8401,136.0
75.0657,136.0
75.2913,136.0
75.5169,130.0
75.7425,132.0
75.9681,109.0
76.1937,151.0
76.4193,131.0
76.6449,126.0
76.8705,160.0
77.0961,256.0
77.3217,731.0
77.5473,514.0
77.7729,262.0
77.9985,124.0
78.2241,138.0
78.4498,114.0
78.6754,93.0
78.901,96.0
79.1266,97.0
79.3522,95.0
79.5778,87.0
79.8034,117.0
79.9914,94.0

File: silver 80C.csv
[Measurement conditions]
Sample identification,
Comment - 1,"Configuration=Powder Diffraction, Owner=User-1, Creation date=6/3/2009 8:49:36 AM"
Comment - 2,"Goniometer=PW3050/65 (Theta/2Theta); Minimum step size 2Theta:0.0001; Minimum step size Omega:0.0001"
Comment - 3,"Sample stage=MRD Cradle; Minimum step size Phi:0.01; Minimum step size Chi:0.01; Minimum step size X:0.01; Minimum step size Y:0.01; Minimum step size Z:0.001"
Comment - 4,"Diffractometer system=XPERT-PRO"
Comment - 5,"Measurement program=C:\PANalytical\Data Collector\Programs\powder_scan_49.xrdmp, Identifier={12387B94-FF5E-46B4-B2C7-B6F75F9A12C1}"
Anode material,Cu
K-Alpha1 wavelength,1.5406
K-Alpha2 wavelength,1.54443
Ratio K-Alpha2/K-Alpha1,0.500
Divergence slit,Fixed,0.38mm
Monochromator used,NO
Generator voltage, 45
Tube current, 40
File date and time,08/Apr/2015 15:54
Unit cell,
h k l, 0 0 0
Scan axis,Gonio
Scan range,20,80.0102
Scan step size,0.0376004
No. of points, 1596
Scan type,CONTINUOUS
Phi,0.00
Psi,0.00
X,0.00
Y,0.00
Z,6.955
Time per step,63.500
[Scan points]
Angle,Intensity
20.0188,259.0
20.2444,252.0
20.47,263.0
20.6956,306.0
20.9212,326.0
21.1468,295.0
21.3724,309.0
21.598,287.0
21.8236,304.0
22.0492,301.0
22.2748,287.0
22.5004,293.0
22.726,299.0
22.9516,289.0
23.1772,332.0
23.4028,298.0
23.6284,250.0
23.854,263.0
24.0796,274.0
24.3052,278.0
24.5308,260.0
24.7564,273.0
24.982,285.0
25.2076,264.0
25.4333,295.0
25.6589,243.0
25.8845,262.0
26.1101,259.0
26.3357,272.0
26.5613,224.0
26.7869,210.0
27.0125,211.0
27.2381,267.0
27.4637,211.0
27.6893,226.0
27.9149,206.0
28.1405,241.0
28.3661,224.0
28.5917,185.0
28.8173,206.0
29.0429,191.0
29.2685,193.0
29.4941,201.0
29.7197,177.0
29.9453,199.0
30.1709,200.0
30.3965,163.0
30.6221,184.0
30.8477,159.0
31.0733,174.0
31.2989,202.0
31.5245,189.0
31.7501,163.0
31.9757,169.0
32.2013,170.0
32.4269,175.0
32.6525,167.0
32.8781,178.0
33.1037,166.0
33.3293,179.0
33.5549,148.0
33.7805,148.0
34.0061,163.0
34.2317,163.0
34.4573,132.0
34.6829,140.0
34.9085,132.0
35.1341,138.0
35.3597,158.0
35.5853,117.0
35.8109,121.0
36.0366,144.0
36.2622,134.0
36.4878,136.0
36.7134,115.0
36.939,154.0
37.1646,136.0
37.3902,153.0
37.6158,183.0
37.8414,298.0
38.067,3463.0
38.2926,748.0
38.5182,272.0
38.7438,177.0
38.9694,133.0
39.195,169.0
39.4206,125.0
39.6462,122.0
39.8718,152.0
40.0974,124.0
40.323,113.0
40.5486,120.0
40.7742,121.0
40.9998,122.0
41.2254,97.0
41.451,109.0
41.6766,122.0
41.9022,112.0
42.1278,113.0
42.3534,112.0
42.579,88.0
42.8046,137.0
43.0302,130.0
43.2558,138.0
43.4814,135.0
43.707,150.0
43.9326,216.0
44.1582,563.0
44.3838,1184.0
44.6094,260.0
44.835,138.0
45.0606,128.0
45.2862,117.0
45.5118,113.0
45.7374,106.0
45.963,131.0
46.1886,111.0
46.4142,113.0
46.6399,101.0
46.8655,131.0
47.0911,76.0
47.3167,112.0
47.5423,80.0
47.7679,88.0
47.9935,89.0
48.2191,82.0
48.4447,102.0
48.6703,89.0
48.8959,75.0
49.1215,93.0
49.3471,78.0
49.5727,102.0
49.7983,99.0
50.0239,83.0
50.2495,94.0
50.4751,102.0
50.7007,106.0
50.9263,80.0
51.1519,72.0
51.3775,93.0
51.6031,104.0
51.8287,98.0
52.0543,74.0
52.2799,80.0
52.5055,84.0
52.7311,69.0
52.9567,82.0
53.1823,86.0
53.4079,80.0
53.6335,78.0
53.8591,62.0
54.0847,80.0
54.3103,91.0
54.5359,65.0
54.7615,78.0
54.9871,63.0
55.2127,73.0
55.4383,72.0
55.6639,71.0
55.8895,71.0
56.1151,86.0
56.3407,89.0
56.5663,73.0
56.7919,85.0
57.0175,57.0
57.2432,68.0
57.4688,55.0
57.6944,67.0
57.92,76.0
58.1456,67.0
58.3712,67.0
58.5968,78.0
58.8224,78.0
59.048,66.0
59.2736,73.0
59.4992,58.0
59.7248,85.0
59.9504,67.0
60.176,63.0
60.4016,75.0
60.6272,66.0
60.8528,61.0
61.0784,74.0
61.304,54.0
61.5296,74.0
61.7552,121.0
61.9808,62.0
62.2064,57.0
62.432,71.0
62.6576,66.0
62.8832,78.0
63.1088,76.0
63.3344,75.0
63.56,66.0
63.7856,93.0
64.0112,101.0
64.2368,232.0
64.4624,904.0
64.688,325.0
64.9136,113.0
65.1392,87.0
65.3648,84.0
65.5904,65.0
65.816,65.0
66.0416,78.0
66.2672,76.0
66.4928,184.0
66.7184,235.0
66.944,213.0
67.1696,225.0
67.3952,234.0
67.6208,259.0
67.8465,261.0
68.0721,268.0
68.2977,316.0
68.5233,429.0
68.7489,1293.0
68.9745,3410.0
69.2001,14039.0
69.4257,4007.0
69.6513,831.0
69.8769,485.0
70.1025,363.0
70.3281,296.0
70.5537,239.0
70.7793,210.0
71.0049,186.0
71.2305,218.0
71.4561,164.0
71.6817,165.0
71.9073,149.0
72.1329,140.0
72.3585,163.0
72.5841,144.0
72.8097,118.0
73.0353,135.0
73.2609,130.0
73.4865,138.0
73.7121,113.0
73.9377,123.0
74.1633,112.0
74.3889,118.0
74.6145,121.0
74.8401,118.0
75.0657,98.0
75.2913,110.0
75.5169,88.0
75.7425,114.0
75.9681,119.0
76.1937,121.0
76.4193,111.0
76.6449,104.0
76.8705,154.0
77.0961,217.0
77.3217,748.0
77.5473,636.0
77.7729,254.0
77.9985,150.0
78.2241,98.0
78.4498,84.0
78.6754,73.0
78.901,84.0
79.1266,74.0
79.3522,73.0
79.5778,76.0
79.8034,81.0
79.9914,69.0