Folder: Graphs/Example Data/Raman/CNT - TIM/Raytheon/FeCu adhesion

Note: README.md
# Graphs
A macOS app that manages the organization of data files and graphs them.

Licensed under the MIT licensing terms: https://opensource.org/licenses/MIT

Hildreth wrote the precursor to Graphs, then called GraphBase, during his Ph.D. to help manage the data he was collecting as part of his research on Metal-assisted Chemical Etching of Silicon.  He was becoming overwhelmed by the hundreds of data files he was collecting every week and was inspired by the Papers and iTunes applications on OS X (now macOS) to create an application that managed data.  GraphBase provided an easy template to create a parser, a simple UI to organize data into hiarchical folders, and leveraged the DataGraph framework (http://www.visualdatatools.com/DataGraph/Framework/) for graphing.  DataGraph (http://www.visualdatatools.com/DataGraph/) is an amazing 2D graphing application and you will need to purchase a DataGraph license from Visual Data Tools in order to use Graphs.

Graphs is a rewrite of GraphBase in Swift written by Connor and then re-written again by Hildreth that has been open sourced for use by all.  Please not that you will need a DataGraph license to create the graph templates used by the DataGraph framework underlying Graphs.  Hildreth plans to continue evolving this application.  The next plan improvements are: multithreading for import and parsing using the new Results type in Swift; and begin switching over to SwiftUI for the UI.  Long term, we hope to add support for data analysis and extraction.

# Overview
Graphs is a data management tool that allows you to store your raw data files in a text formate (CSV, tab delimited, etc.) and then have those files parsed and graphed when selected.  Graphs uses the DataGraph fromework 

To use Graphs, first you create an example graph, what we call a Graph Template, in DataGraph.  Format the graph the way you want it to look and make sure that the Data Columns are in the same order as the columns in your data.  Next, you  add your "Graph Template" to Graphs using either the Graph Template Inspector on the right side of Graphs using using the "+" sign on the bottom left of the application.  You can also drag-and-drop the file onto a folder in the Source List.  Once you add a Graph Template, you can assign it to be the default Graph Template for a folder and any sub-folders using the Folder Inspector.

The second step is to make a Paser using the Parser Inspector.  It might be helpful to have an example file already in Graphs (see Step 3) because you can use the Text Inspector to see what lines your Experimental Details, Header, and Data start at.  Add a Parse Template using the + sign in the Parse Inspector's table and give the Parse Template a name.  If your data has experimental details at the top, then select the checkbox and set the starting and ending lines for this information.  If your data has a Header, select the Header checkbox, give it starting and ending line numbers, and then select the type of s

File: FeCu - T1.txt
300	658.224
307.442	698.424
314.883	693.09
322.325	699.29
329.766	706.722
337.208	708.033
344.649	709.543
352.091	720.249
359.532	721
366.974	726.81
374.415	698.899
381.857	698.578
389.298	697.361
396.74	700.216
404.181	720.675
411.623	684.908
419.064	713.141
426.506	691.562
433.948	696.651
441.389	712.051
448.831	674.578
456.272	677.853
463.714	665.618
471.155	683.378
478.597	677.09
486.038	706.274
493.48	687.895
500.921	681.52
508.363	693.838
515.804	691.168
523.246	646.588
530.687	661.214
538.129	668.224
545.57	675.656
553.012	672.406
560.454	691.333
567.895	692.11
575.337	670.544
582.778	708.218
590.22	688.646
597.661	680.465
605.103	681.392
612.544	695.619
619.986	704.782
627.427	687.521
634.869	732.322
642.31	706
649.752	717.104
657.193	741.18
664.635	719.242
672.077	748.529
679.518	746.108
686.96	708.582
694.401	721.617
701.843	722.505
709.284	745.915
716.726	747.196
724.167	738.095
731.609	743.821
739.05	769.297
746.492	779.46
753.933	781.741
761.375	768.794
768.816	791.639
776.258	801.75
783.7	787.904
791.141	792.417
798.583	793.657
806.024	810.829
813.466	819.575
820.907	823.244
828.349	828.004
835.79	813.981
843.232	842.529
850.673	830.611
858.115	825.714
865.556	817.216
872.998	823.769
880.439	814.482
887.881	796.966
895.322	781.109
902.764	761.253
910.206	776.116
917.647	758.161
925.089	768.62
932.53	746.559
939.972	744.514
947.413	759.101
954.855	744.307
962.296	746.032
969.738	767.605
977.179	748.371
984.621	769.21
992.062	744.996
999.504	787.246
1006.95	761.978
1014.39	774.61
1021.83	791.891
1029.27	778.747
1036.71	792.597
1044.15	818.055
1051.59	790.92
1059.04	789.609
1066.48	785.877
1073.92	776.244
1081.36	785.427
1088.8	771.418
1096.24	774.42
1103.69	790.221
1111.13	789.46
1118.57	796.69
1126.01	797.236
1133.45	798.697
1140.89	803.5
1148.33	817.128
1155.78	824.96
1163.22	817.869
1170.66	833.411
1178.1	857.622
1185.54	828.784
1192.98	849.189
1200.43	875.21
1207.87	863.754
1215.31	862.175
1222.75	884.469
1230.19	877.244
1237.63	903.978
1245.07	912.664
1252.52	942.947
1259.96	952.82
1267.4	958.926
1274.84	971.236
1282.28	983.647
1289.72	997.667
1297.17	1025.85
1304.61	1049.04
1312.05	1093.98
1319.49	1100.23
1326.93	1142.96
1334.37	1179.99
1341.81	1205.33
1349.26	1182.67
1356.7	1211.92
1364.14	1199.61
1371.58	1174.69
1379.02	1158.46
1386.46	1101.28
1393.91	1066.46
1401.35	1043.08
1408.79	1024.33
1416.23	1016.89
1423.67	975.211
1431.11	989.323
1438.55	978.506
1446	985.17
1453.44	965.747
1460.88	987.089
1468.32	965.224
1475.76	961.956
1483.2	954.129
1490.64	953.2
1498.09	940.745
1505.53	941.355
1512.97	954.279
1520.41	931.675
1527.85	997.854
1535.29	961.516
1542.74	961.521
1550.18	983.163
1557.62	1021.13
1565.06	1021.58
1572.5	1059.95
1579.94	1077.58
1587.38	1153.36
1594.83	1161.54
1602.27	1208.32
1609.71	1179.47
1617.15	1132.87
1624.59	1053.99
1632.03	1001.36
1639.48	960.951
1646.92	896.059
1654.36	883.355
1661.8	858.624
1669.24	818.188
1676.68	802.62
1684.12	776.518
1691.57	771.141
1699.01	747.506
1706.45	747.71
1713.89	730.011
1721.33	737.235
1728.77	735.827
1736.22	731.226
1743.66	710.647
1751.1	718.259
1758.54	711.321
1765.98	724.856
1773.42	697.357
1780.86	698.344
1788.31	699.568
1795.75	700.708
1803.19	710.409
1810.63	715.784
1818.07	702.754
1825.51	686.722
1832.96	698.728
1840.4	708.722
1847.84	683.829
1855.28	666.907
1862.72	691.788
1870.16	676.857
1877.6	671.523
1885.05	661.769
1892.49	670.26
1899.93	659.095
1907.37	648.155
1914.81	655.253
1922.25	666.975
1929.7	639.908
1937.14	659.159
1944.58	644.994
1952.02	625.505
1959.46	641.092
1966.9	612.575
1974.34	626.526
1981.79	632.913
1989.23	616.288
1996.67	624.413
2004.11	615.125
2011.55	626.692
2018.99	625.134
2026.44	619.276
2033.88	625.927
2041.32	608.791
2048.76	619.906
2056.2	590.604
2063.64	607.772
2071.08	597.269
2078.53	587.373
2085.97	589.007
2093.41	587.031
2100.85	573.034
2108.29	582.23
2115.73	598.248
2123.18	586.385
2130.62	578.425
2138.06	570.479
2145.5	566.424
2152.94	568.762
2160.38	559.321
2167.82	550.625
2175.27	572.242
2182.71	546.323
2190.15	539.453
2197.59	540.96
2205.03	551.509
2212.47	546.84
2219.92	538.211
2227.36	540.651
2234.8	523.698
2242.24	532.559
2249.68	532.628
2257.12	535.405
2264.56	529.047
2272.01	538.92
2279.45	518.015
2286.89	539.324
2294.33	524.106
2301.77	504.446
2309.21	513.383
2316.65	512.508
2324.1	503.637
2331.54	591.559
2338.98	498.329
2346.42	487.507
2353.86	509.047
2361.3	507.086
2368.75	495.132
2376.19	493.852
2383.63	508.762
2391.07	502.917
2398.51	492.379
2400	500.014