Folder: Graphs/Example Data/Raman/Horiba/06-06-11 - Background noise

Note: README.md
# Graphs
A macOS app that manages the organization of data files and graphs them.

Licensed under the MIT licensing terms: https://opensource.org/licenses/MIT

Hildreth wrote the precursor to Graphs, then called GraphBase, during his Ph.D. to help manage the data he was collecting as part of his research on Metal-assisted Chemical Etching of Silicon.  He was becoming overwhelmed by the hundreds of data files he was collecting every week and was inspired by the Papers and iTunes applications on OS X (now macOS) to create an application that managed data.  GraphBase provided an easy template to create a parser, a simple UI to organize data into hiarchical folders, and leveraged the DataGraph framework (http://www.visualdatatools.com/DataGraph/Framework/) for graphing.  DataGraph (http://www.visualdatatools.com/DataGraph/) is an amazing 2D graphing application and you will need to purchase a DataGraph license from Visual Data Tools in order to use Graphs.

Graphs is a rewrite of GraphBase in Swift written by Connor and then re-written again by Hildreth that has been open sourced for use by all.  Please not that you will need a DataGraph license to create the graph templates used by the DataGraph framework underlying Graphs.  Hildreth plans to continue evolving this application.  The next plan improvements are: multithreading for import and parsing using the new Results type in Swift; and begin switching over to SwiftUI for the UI.  Long term, we hope to add support for data analysis and extraction.

# Overview
Graphs is a data management tool that allows you to store your raw data files in a text formate (CSV, tab delimited, etc.) and then have those files parsed and graphed when selected.  Graphs uses the DataGraph fromework 

To use Graphs, first you create an example graph, what we call a Graph Template, in DataGraph.  Format the graph the way you want it to look and make sure that the Data Columns are in the same order as the columns in your data.  Next, you  add your "Graph Template" to Graphs using either the Graph Template Inspector on the right side of Graphs using using the "+" sign on the bottom left of the application.  You can also drag-and-drop the file onto a folder in the Source List.  Once you add a Graph Template, you can assign it to be the default Graph Template for a folder and any sub-folders using the Folder Inspector.

The second step is to make a Paser using the Parser Inspector.  It might be helpful to have an example file already in Graphs (see Step 3) because you can use the Text Inspector to see what lines your Experimental Details, Header, and Data start at.  Add a Parse Template using the + sign in the Parse Inspector's table and give the Parse Template a name.  If your data has experimental details at the top, then select the checkbox and set the starting and ending lines for this information.  If your data has a Header, select the Header checkbox, give it starting and ending line numbers, and then select the type of s

File: CNT-control_3.txt
400	-197.937
406.069	-201.521
412.138	-198.433
418.208	-201.632
424.277	-198.158
430.346	-201.879
436.415	-200.191
442.485	-203
448.554	-202.4
454.623	-201.348
460.692	-204.399
466.762	-201.317
472.831	-201.25
478.9	-202.984
484.969	-205.582
491.038	-204.041
497.108	-203.474
503.177	-199.815
509.246	-204.973
515.315	-204.964
521.385	-202.984
527.454	-206.747
533.523	-204.528
539.592	-201.932
545.661	-202.502
551.731	-206.524
557.8	-201
563.869	-202.6
569.938	-198.013
576.008	-200.734
582.077	-200.527
588.146	-207.606
594.215	-204.612
600.284	-204.615
606.354	-202.752
612.423	-195.96
618.492	-201.666
624.561	-204.142
630.631	-205.232
636.7	-198.202
642.769	-205.034
648.838	-195.431
654.908	-195.698
660.977	-197.855
667.046	-198.556
673.115	-193.18
679.184	-198.304
685.254	-192.767
691.323	-195.985
697.392	-195.557
703.461	-192.906
709.531	-188.86
715.6	-189.029
721.669	-189.116
727.738	-187.468
733.807	-188
739.877	-189.173
745.946	-188.227
752.015	-184.442
758.084	-188.277
764.154	-187.352
770.223	-182.707
776.292	-182.324
782.361	-182.755
788.431	-181.85
794.5	-180.24
800.569	-180.469
806.638	-178.414
812.707	-177.332
818.777	-176.77
824.846	-169.972
830.915	-175.191
836.984	-175.423
843.054	-172.583
849.123	-169.937
855.192	-174.586
861.261	-175.959
867.331	-182.762
873.4	-180.639
879.469	-178.059
885.538	-179.909
891.607	-182.405
897.677	-184.012
903.746	-182.354
909.815	-185.804
915.884	-181.241
921.954	-179.057
928.023	-185.117
934.092	-179.28
940.161	-183.638
946.23	-182.253
952.3	-180.481
958.369	-180.564
964.438	-186.489
970.507	-181.736
976.577	-180.337
982.646	-176.852
988.715	-180.235
994.784	-177.854
1000.85	-175.119
1006.92	-175.433
1012.99	-171.06
1019.06	-173.689
1025.13	-173.712
1031.2	-167.312
1037.27	-164
1043.34	-168.333
1049.41	-161.558
1055.48	-163.446
1061.55	-162.124
1067.61	-159.242
1073.68	-154.421
1079.75	-155.037
1085.82	-152.899
1091.89	-148.557
1097.96	-142.553
1104.03	-140.651
1110.1	-136.437
1116.17	-137.576
1122.24	-133.364
1128.31	-129.074
1134.38	-126.097
1140.45	-118.026
1146.51	-110.958
1152.58	-97.9357
1158.65	-84.6027
1164.72	-79.4557
1170.79	-68.5455
1176.86	-60.0817
1182.93	-50.1937
1189	-43.8016
1195.07	-35.6446
1201.14	-30.1123
1207.21	-28.2329
1213.28	-28.6334
1219.35	-36.5594
1225.41	-41.3347
1231.48	-36.0546
1237.55	-33.2013
1243.62	-31.0976
1249.69	-32.0884
1255.76	-28.2836
1261.83	-20.9376
1267.9	-15.9794
1273.97	-12.9225
1280.04	-1.40846
1286.11	0.524857
1292.18	22.3475
1298.25	29.7313
1304.31	53.0532
1310.38	92.2844
1316.45	120.761
1322.52	169.435
1328.59	208.559
1334.66	222.456
1340.73	220.203
1346.8	182.822
1352.87	137.229
1358.94	103.064
1365.01	70.7506
1371.08	43.0906
1377.15	27.6519
1383.21	8.5916
1389.28	0.481766
1395.35	-3.32739
1401.42	-14.991
1407.49	-4.15182
1413.56	-14.1035
1419.63	-12.0076
1425.7	-20.6843
1431.77	-24.4149
1437.84	-19.4896
1443.91	-27.7976
1449.98	-22.8399
1456.05	-20.1578
1462.11	-23.8812
1468.18	-22.3152
1474.25	-23.304
1480.32	-21.8172
1486.39	-21.0304
1492.46	-22.0316
1498.53	-13.1039
1504.6	-6.61984
1510.67	-13.2699
1516.74	-1.80664
1522.81	2.89775
1528.88	17.2773
1534.95	31.8654
1541.01	54.4446
1547.08	77.6571
1553.15	124.34
1559.22	165.243
1565.29	196.865
1571.36	210.42
1577.43	189.431
1583.5	149.757
1589.57	127.636
1595.64	111.889
1601.71	108.011
1607.78	87.5071
1613.85	58.2577
1619.91	34.5445
1625.98	19.2981
1632.05	4.49306
1638.12	-6.35261
1644.19	-9.27257
1650.26	-9.12749
1656.33	-11.9981
1662.4	-12.6884
1668.47	-17.6423
1674.54	-18.0166
1680.61	-17.6111
1686.68	-15.6407
1692.75	-18.2043
1698.81	-14.6994
1704.88	-15.088
1710.95	-13.4479
1717.02	-12.2791
1723.09	-10.8437
1729.16	-11.7528
1735.23	-10.403
1741.3	-8.1754
1747.37	-8.21201
1753.44	-6.81899
1759.51	-5.66711
1765.58	-4.33629
1771.65	-5.29652
1777.71	0.248667
1783.78	1.63731
1789.85	0.692
1795.92	3.14503
1801.99	5.29741
1808.06	7.59404
1814.13	4.74053
1820.2	9.94434
1826.27	8.70433
1832.34	8.15439
1838.41	9.80285
1844.48	12.4381
1850.55	13.8227
1856.61	14.1008
1862.68	11.853
1868.75	16.0758
1874.82	10.2056
1880.89	11.6067
1886.96	4.55495
1893.03	6.54526
1899.1	7.08946
1905.17	6.99963
1911.24	7.67577
1917.31	7.25558
1923.38	7.60794
1929.45	6.96849
1935.51	10.4742
1941.58	8.1611
1947.65	9.38161
1953.72	4.88712
1959.79	11.8703
1965.86	9.58488
1971.93	14.7214
1978	14.7629
1984.07	17.5939
1990.14	12.7456
1996.21	14.3701
2000	12.3089