Folder: Graphs/Example Data/Raman/Kara/05-21-10/CNT m2 3-6-2008

Note: README.md
# Graphs
A macOS app that manages the organization of data files and graphs them.

Licensed under the MIT licensing terms: https://opensource.org/licenses/MIT

Hildreth wrote the precursor to Graphs, then called GraphBase, during his Ph.D. to help manage the data he was collecting as part of his research on Metal-assisted Chemical Etching of Silicon.  He was becoming overwhelmed by the hundreds of data files he was collecting every week and was inspired by the Papers and iTunes applications on OS X (now macOS) to create an application that managed data.  GraphBase provided an easy template to create a parser, a simple UI to organize data into hiarchical folders, and leveraged the DataGraph framework (http://www.visualdatatools.com/DataGraph/Framework/) for graphing.  DataGraph (http://www.visualdatatools.com/DataGraph/) is an amazing 2D graphing application and you will need to purchase a DataGraph license from Visual Data Tools in order to use Graphs.

Graphs is a rewrite of GraphBase in Swift written by Connor and then re-written again by Hildreth that has been open sourced for use by all.  Please not that you will need a DataGraph license to create the graph templates used by the DataGraph framework underlying Graphs.  Hildreth plans to continue evolving this application.  The next plan improvements are: multithreading for import and parsing using the new Results type in Swift; and begin switching over to SwiftUI for the UI.  Long term, we hope to add support for data analysis and extraction.

# Overview
Graphs is a data management tool that allows you to store your raw data files in a text formate (CSV, tab delimited, etc.) and then have those files parsed and graphed when selected.  Graphs uses the DataGraph fromework 

To use Graphs, first you create an example graph, what we call a Graph Template, in DataGraph.  Format the graph the way you want it to look and make sure that the Data Columns are in the same order as the columns in your data.  Next, you  add your "Graph Template" to Graphs using either the Graph Template Inspector on the right side of Graphs using using the "+" sign on the bottom left of the application.  You can also drag-and-drop the file onto a folder in the Source List.  Once you add a Graph Template, you can assign it to be the default Graph Template for a folder and any sub-folders using the Folder Inspector.

The second step is to make a Paser using the Parser Inspector.  It might be helpful to have an example file already in Graphs (see Step 3) because you can use the Text Inspector to see what lines your Experimental Details, Header, and Data start at.  Add a Parse Template using the + sign in the Parse Inspector's table and give the Parse Template a name.  If your data has experimental details at the top, then select the checkbox and set the starting and ending lines for this information.  If your data has a Header, select the Header checkbox, give it starting and ending line numbers, and then select the type of s

File: CNT m2.txt
1000	123.125
1003.65	119.517
1007.3	119.69
1010.95	118.283
1014.6	120.221
1018.25	124.393
1021.9	119.484
1025.55	119.194
1029.2	124.438
1032.85	128.333
1036.5	136.758
1040.15	135.068
1043.8	131.487
1047.45	131.139
1051.09	126.2
1054.74	126.323
1058.39	122.056
1062.04	123.717
1065.69	118.4
1069.34	120.031
1072.99	119.507
1076.64	117.114
1080.29	120.933
1083.94	118.956
1087.59	116.165
1091.24	117.002
1094.89	122.744
1098.54	120.096
1102.19	112.775
1105.84	117.1
1109.49	116.593
1113.14	113.521
1116.79	115.833
1120.44	117.732
1124.09	109.219
1127.74	101.146
1131.39	106.175
1135.04	100.726
1138.69	108.088
1142.34	103.371
1145.99	106.351
1149.64	102.244
1153.28	94.9508
1156.93	100.885
1160.58	101.922
1164.23	97.6137
1167.88	97.6312
1171.53	105.596
1175.18	96.133
1178.83	98.0126
1182.48	103.045
1186.13	95.1471
1189.78	101.535
1193.43	107.704
1197.08	100.915
1200.73	102.497
1204.38	101.449
1208.03	101.005
1211.68	105.43
1215.33	107.886
1218.98	107.936
1222.63	109.597
1226.28	109.851
1229.93	116.206
1233.58	116.752
1237.23	118.695
1240.88	116.208
1244.53	123.298
1248.18	123.509
1251.82	121.8
1255.47	131.29
1259.12	136.002
1262.77	129.7
1266.42	138.208
1270.07	153.574
1273.72	146.277
1277.37	152.489
1281.02	160.347
1284.67	159.393
1288.32	174.923
1291.97	189.038
1295.62	196.938
1299.27	216.353
1302.92	233.973
1306.57	255.949
1310.22	285.496
1313.87	319.724
1317.52	362.851
1321.17	401.895
1324.82	444.125
1328.47	496.771
1332.12	528.539
1335.77	553.587
1339.42	555.843
1343.07	542.432
1346.72	541.56
1350.36	515.755
1354.01	463.99
1357.66	420.517
1361.31	382.924
1364.96	352.111
1368.61	307.666
1372.26	282.722
1375.91	261.456
1379.56	223.932
1383.21	208.506
1386.86	211.033
1390.51	196.453
1394.16	181.269
1397.81	167.727
1401.46	170.867
1405.11	156.035
1408.76	160.266
1412.41	149.741
1416.06	152.135
1419.71	137.039
1423.36	132.274
1427.01	133.326
1430.66	132.42
1434.31	136.8
1437.96	137.091
1441.61	141.376
1445.26	138.4
1448.91	133.581
1452.55	137.378
1456.2	140.891
1459.85	135.224
1463.5	135.104
1467.15	136.8
1470.8	132.874
1474.45	137.033
1478.1	130.807
1481.75	139.455
1485.4	146.542
1489.05	141.441
1492.7	146.932
1496.35	150.139
1500	143.055
1503.65	146.621
1507.3	159.571
1510.95	150.078
1514.6	157.31
1518.25	167.552
1521.9	184.999
1525.55	188.052
1529.2	202.14
1532.85	224.313
1536.5	227.877
1540.15	274.139
1543.8	295.987
1547.45	337.893
1551.09	385.197
1554.74	442.01
1558.39	512.81
1562.04	564.739
1565.69	616.841
1569.34	647.701
1572.99	665.142
1576.64	631.055
1580.29	599.961
1583.94	550.291
1587.59	495.198
1591.24	460.001
1594.89	419.888
1598.54	401.129
1602.19	383.765
1605.84	375.851
1609.49	344.215
1613.14	316.069
1616.79	282.203
1620.44	247.276
1624.09	214.456
1627.74	196.942
1631.39	169.142
1635.04	157.045
1638.69	139.854
1642.34	130.244
1645.99	118.734
1649.64	110.496
1653.28	104.095
1656.93	100.047
1660.58	93.5468
1664.23	85.9141
1667.88	86.0303
1671.53	84.9915
1675.18	83.4115
1678.83	83.7595
1682.48	80.1624
1686.13	76.2806
1689.78	72.7896
1693.43	72.2319
1697.08	76.0091
1700.73	74.1505
1704.38	72.8673
1708.03	74.6943
1711.68	69.5031
1715.33	68.9051
1718.98	70.3528
1722.63	69.6757
1726.28	71.1312
1729.93	67.7198
1733.58	67.4518
1737.23	67.9609
1740.88	63.2541
1744.53	66.2132
1748.18	69.9797
1751.82	65.123
1755.47	62.5574
1759.12	65.1446
1762.77	63.1653
1766.42	61.2162
1770.07	69.4246
1773.72	62.1334
1777.37	64.2779
1781.02	62.9557
1784.67	63.6398
1788.32	64.195
1791.97	63.3918
1795.62	62.9851
1799.27	65.2743
1802.92	60.2639
1806.57	65.2149
1810.22	62.6691
1813.87	65.1505
1817.52	71.6196
1821.17	64.7664
1824.82	64.0005
1828.47	68.0072
1832.12	64.4394
1835.77	61.8982
1839.42	64.8088
1843.07	66.2942
1846.72	63.6636
1850.36	67.588
1854.01	63.9002
1857.66	61.4393
1861.31	63.1673
1864.96	71.3643
1868.61	71.4943
1872.26	64.4034
1875.91	68.5417
1879.56	66.5343
1883.21	70.0961
1886.86	61.93
1890.51	66.2734
1894.16	67.8797
1897.81	67.1817
1901.46	64.3591
1905.11	66.1875
1908.76	63.4379
1912.41	66.6666
1916.06	65.6288
1919.71	58.9658
1923.36	59.7651
1927.01	61.7439
1930.66	64.1913
1934.31	64.8341
1937.96	64.5359
1941.61	70.3194
1945.26	61.8896
1948.91	62.2624
1952.55	66.6022
1956.2	57.6266
1959.85	60.8986
1963.5	57.1667
1967.15	65.2562
1970.8	64.2691
1974.45	63.7175
1978.1	63.0818
1981.75	65.9962
1985.4	67.2073
1989.05	66.8319
1992.7	67.0098
1996.35	66.7655
2000	66.5774

File: CNT m2_2.txt
50	13.6935
60.0413	15.1807
70.0827	122.089
80.124	267.23
90.1653	259.22
100.207	259.919
110.248	318.835
120.289	271.533
130.331	237.924
140.372	235.983
150.413	215.251
160.455	207.865
170.496	195.682
180.537	206.177
190.579	206.826
200.62	208.863
210.661	194.76
220.703	207.897
230.744	213.154
240.785	217.793
250.827	207.914
260.868	209.552
270.909	207.315
280.951	198.511
290.992	205.333
301.033	195.971
311.075	185.881
321.116	180.29
331.157	187.233
341.199	173.472
351.24	173.864
361.281	170.26
371.323	158.916
381.364	157.221
391.405	146.57
401.447	147.067
411.488	149.452
421.529	145.758
431.571	131.695
441.612	137.667
451.653	142.063
461.695	134.424
471.736	132.116
481.777	127.052
491.819	131.015
501.86	128.741
511.901	118.097
521.943	126.156
531.984	115.074
542.025	117.68
552.067	116.457
562.108	126.521
572.149	117.195
582.191	120.223
592.232	121.398
602.273	123.646
612.315	119.062
622.356	120.432
632.397	126.638
642.439	135.779
652.48	137.524
662.521	135.694
672.563	136.579
682.604	141.832
692.645	142.881
702.687	147.186
712.728	150.811
722.769	156.88
732.811	161.281
742.852	158.102
752.893	156.571
762.935	175.643
772.976	174.378
783.017	190.689
793.059	187.034
803.1	185.717
813.141	192.553
823.183	210.28
833.224	205.601
843.265	209.396
853.307	214.027
863.348	196.09
873.389	191.606
883.431	174.291
893.472	157.673
903.513	137.082
913.555	140.111
923.596	132.625
933.637	121.558
943.679	123.851
953.72	116.889
963.761	114.711
973.803	105.542
983.844	106.768
993.885	110.606
1003.93	115.698
1013.97	114.299
1024.01	117.717
1034.05	131.263
1044.09	129.479
1054.13	127.777
1064.17	119.254
1074.22	118.249
1084.26	118.667
1094.3	124.159
1104.34	111.513
1114.38	109.954
1124.42	108.352
1134.46	97.2466
1144.51	108.274
1154.55	102.116
1164.59	102.916
1174.63	101.925
1184.67	93.8346
1194.71	103.919
1204.75	102.477
1214.79	106.307
1224.84	111.88
1234.88	110.222
1244.92	124.284
1254.96	117.955
1265	138.851
1275.04	156.048
1285.08	178.295
1295.13	196.041
1305.17	257.78
1315.21	347.384
1325.25	493.8
1335.29	615.107
1345.33	618.414
1355.37	493.594
1365.41	358.217
1375.46	264.505
1385.5	212.287
1395.54	180.71
1405.58	159.989
1415.62	143.103
1425.66	137.317
1435.7	139.03
1445.75	132.66
1455.79	129.58
1465.83	142.217
1475.87	133.27
1485.91	138.606
1495.95	146.392
1505.99	148.457
1516.03	160.578
1526.08	183.089
1536.12	231.442
1546.16	311.174
1556.2	472.2
1566.24	628.932
1576.28	672.529
1586.32	530.691
1596.37	419.178
1606.41	388.573
1616.45	288.248
1626.49	205.77
1636.53	156.173
1646.57	107.985
1656.61	84.8293
1666.65	83.4182
1676.7	78.8289
1686.74	71.4468
1696.78	70.8806
1706.82	70.4725
1716.86	64.9758
1726.9	55.6436
1736.94	66.6955
1746.99	58.9797
1757.03	59.0179
1767.07	62.2454
1777.11	51.4377
1787.15	62.8257
1797.19	63.3002
1807.23	63.7931
1817.27	58.3892
1827.32	60.1276
1837.36	59.0675
1847.4	57.7466
1857.44	57.861
1867.48	65.9395
1877.52	60.6626
1887.56	57.8094
1897.61	56.1155
1907.65	56.3588
1917.69	61.1913
1927.73	56.232
1937.77	55.5544
1947.81	59.1152
1957.85	57.1429
1967.89	57.431
1977.94	58.2162
1987.98	63.0572
1998.02	58.5639
2008.06	50.5816
2018.1	54.0241
2028.14	60.4963
2038.18	55.678
2048.23	60.8832
2058.27	59.0642
2068.31	45.2901
2078.35	58.9848
2088.39	55.3918
2098.43	52.3268
2108.47	61.9442
2118.51	59.6036
2128.56	51.4768
2138.6	56.7132
2148.64	52.5628
2158.68	58.4847
2168.72	64.818
2178.76	55.1068
2188.8	63.7859
2198.85	59.7803
2208.89	58.9833
2218.93	56.8974
2228.97	59.3104
2239.01	62.9408
2249.05	64.4811
2259.09	59.0358
2269.13	60.8118
2279.18	61.1518
2289.22	61.4783
2299.26	67.0986
2309.3	71.8709
2319.34	59.2426
2329.38	88.7867
2339.42	56.8573
2349.47	62.3223
2359.51	62.7783
2369.55	68.064
2379.59	74.2552
2389.63	77.1317
2399.67	75.4111
2409.71	90.3106
2419.75	88.0067
2429.8	87.6196
2439.84	91.1082
2449.88	96.8386
2459.92	89.7803
2469.96	90.0154
2480	84.5168
2490.04	84.0472
2500.09	84.9768
2510.13	88.5291
2520.17	91.2185
2530.21	87.1965
2540.25	90.6827
2550.29	88.0109
2560.33	97.8715
2570.37	111.012
2580.42	121.839
2590.46	125.497
2600.5	150.079
2610.54	165.342
2620.58	200.024
2630.62	232.315
2640.66	281.261
2650.71	332.956
2660.75	384.042
2670.79	410.022
2680.83	402.519
2690.87	388.994
2700.91	334.309
2710.95	286.001
2720.99	236.172
2731.04	203.744
2741.08	170.877
2751.12	151.217
2761.16	132.471
2771.2	124.051
2781.24	118.308
2791.28	106.416
2801.32	104.934
2811.37	98.7933
2821.41	102.924
2831.45	95.6652
2841.49	99.2848
2851.53	103.934
2861.57	96.3953
2871.61	104.737
2881.66	103.249
2891.7	107.509
2901.74	118.322
2911.78	118.871
2921.82	127.304
2931.86	112.677
2941.9	110.538
2951.95	109.688
2961.99	96.8822
2972.03	97.6485
2982.07	98.9536
2992.11	92.8425
3000	81.528

File: CNT m2_3_Si only.txt
50	62.2491
60.0413	43.2412
70.0827	103.341
80.124	158.962
90.1653	145.841
100.207	155.521
110.248	222.011
120.289	152.279
130.331	142.32
140.372	158.533
150.413	132.333
160.455	131.352
170.496	119.608
180.537	123.134
190.579	117.945
200.62	123.538
210.661	127.852
220.703	135.416
230.744	136.482
240.785	142.609
250.827	139.695
260.868	157.694
270.909	144.925
280.951	140.698
290.992	161.224
301.033	150.992
311.075	157.674
321.116	143.183
331.157	137.289
341.199	131.108
351.24	129.162
361.281	121.753
371.323	112.052
381.364	101.431
391.405	101.528
401.447	102.495
411.488	88.0813
421.529	96.0387
431.571	97.125
441.612	90.5401
451.653	86.1411
461.695	73.5371
471.736	83.4991
481.777	86.7533
491.819	96.3847
501.86	111.698
511.901	183.069
521.943	4248.91
531.984	271.986
542.025	121.289
552.067	93.4784
562.108	82.6667
572.149	79.2479
582.191	69.0387
592.232	72.9322
602.273	74.8028
612.315	80.5948
622.356	88.3562
632.397	89.2421
642.439	81.7437
652.48	88.6805
662.521	89.9576
672.563	99.2107
682.604	91.926
692.645	95.9034
702.687	94.8018
712.728	97.9369
722.769	99.97
732.811	103.93
742.852	106.214
752.893	107.725
762.935	109.845
772.976	128.52
783.017	125.675
793.059	125.909
803.1	130.985
813.141	142.724
823.183	142.915
833.224	140.651
843.265	138.204
853.307	140.048
863.348	137.653
873.389	128.973
883.431	112.368
893.472	109.866
903.513	97.7513
913.555	91.5721
923.596	86.1238
933.637	116.108
943.679	165.801
953.72	162.309
963.761	159.464
973.803	165.063
983.844	154.026
993.885	120.78
1003.93	89.4504
1013.97	81.5516
1024.01	77.545
1034.05	73.6881
1044.09	67.5102
1054.13	63.1841
1064.17	62.7097
1074.22	47.733
1084.26	44.5321
1094.3	40.8359
1104.34	44.4385
1114.38	42.4258
1124.42	40.7925
1134.46	38.9093
1144.51	39.7003
1154.55	32.5161
1164.59	31.4315
1174.63	29.1943
1184.67	29.8137
1194.71	26.9969
1204.75	30.235
1214.79	27.3249
1224.84	27.0401
1234.88	30.5689
1244.92	30.2178
1254.96	28.8626
1265	28
1275.04	31.1335
1285.08	29.9895
1295.13	37.8872
1305.17	39.0654
1315.21	40.1508
1325.25	51.077
1335.29	55.9935
1345.33	60.4138
1355.37	61.797
1365.41	57.6872
1375.46	51.6034
1385.5	45.3913
1395.54	37.0873
1405.58	42.6046
1415.62	34.6106
1425.66	30.4329
1435.7	32.1093
1445.75	31.8057
1455.79	26.7716
1465.83	35.0773
1475.87	34.3199
1485.91	32.8182
1495.95	30.4903
1505.99	30.2949
1516.03	35.6457
1526.08	34.2806
1536.12	30.352
1546.16	38.1686
1556.2	52.3105
1566.24	49.8201
1576.28	62.2242
1586.32	78.9927
1596.37	61.8139
1606.41	51.9688
1616.45	50.5523
1626.49	43.1831
1636.53	38.6012
1646.57	28.228
1656.61	30.5594
1666.65	25.8776
1676.7	29.9354
1686.74	24.6828
1696.78	26.3086
1706.82	27.2408
1716.86	25.5986
1726.9	22.7372
1736.94	22.3479
1746.99	23.0936
1757.03	25.693
1767.07	24.3787
1777.11	26.2083
1787.15	17.5367
1797.19	23.0978
1807.23	28.2643
1817.27	24.0604
1827.32	23.96
1837.36	20.4028
1847.4	27.4071
1857.44	25.2959
1867.48	25.333
1877.52	24.3515
1887.56	25.1041
1897.61	24.4698
1907.65	21.4941
1917.69	18.6783
1927.73	27.9509
1937.77	30.1682
1947.81	22.9725
1957.85	23.188
1967.89	24.092
1977.94	25.1171
1987.98	29.2985
1998.02	27.6373
2008.06	26.566
2018.1	24.6908
2028.14	26.6148
2038.18	26.983
2048.23	31.4596
2058.27	27.1168
2068.31	23.4128
2078.35	29.0607
2088.39	26.6901
2098.43	23.9869
2108.47	22.1894
2118.51	27.4981
2128.56	22.1899
2138.6	24.9109
2148.64	31.4871
2158.68	28.5193
2168.72	27.59
2178.76	26.65
2188.8	29.3205
2198.85	27.8423
2208.89	28.816
2218.93	25.8982
2228.97	25.0461
2239.01	25.3259
2249.05	28.6508
2259.09	28.1409
2269.13	28.3765
2279.18	24.2844
2289.22	26.6667
2299.26	22.1124
2309.3	28.5687
2319.34	26.8028
2329.38	51.9417
2339.42	25.1855
2349.47	27.1249
2359.51	29.4072
2369.55	29.2525
2379.59	27.3913
2389.63	29.3145
2399.67	31.4551
2409.71	30.2548
2419.75	32.6767
2429.8	31.1407
2439.84	30.4459
2449.88	31.9915
2459.92	29.8333
2469.96	33.2326
2480	30.2322
2490.04	27.6327
2500.09	29.8228
2510.13	30.4686
2520.17	34.2166
2530.21	34.1824
2540.25	28.8904
2550.29	34.0748
2560.33	27.1471
2570.37	35.1365
2580.42	32.1239
2590.46	32.7752
2600.5	32.5358
2610.54	34.8177
2620.58	34.972
2630.62	34.0052
2640.66	38.3554
2650.71	36.1856
2660.75	42.6867
2670.79	46.488
2680.83	50.3778
2690.87	58.0515
2700.91	52.0985
2710.95	54.7943
2720.99	52.0152
2731.04	46.4228
2741.08	45.8511
2751.12	35.7514
2761.16	36.5459
2771.2	32.0237
2781.24	35.3627
2791.28	33.5862
2801.32	33.368
2811.37	30.5065
2821.41	36.3821
2831.45	27.2675
2841.49	34.5939
2851.53	27.8598
2861.57	30.5892
2871.61	28.3737
2881.66	35.5935
2891.7	35.2726
2901.74	31.2118
2911.78	28.6299
2921.82	36.3152
2931.86	33.3359
2941.9	31.2806
2951.95	32.5016
2961.99	33.9885
2972.03	35.904
2982.07	31.8499
2992.11	26.1327
3000	31.0373

File: CNT m2_4.txt
50	2.39311
60.0413	1.95664
70.0827	47.5678
80.124	110.919
90.1653	102.905
100.207	108.227
110.248	139.962
120.289	115.478
130.331	97.6459
140.372	99.795
150.413	85.8051
160.455	93.2812
170.496	84.1277
180.537	84.8275
190.579	84.2059
200.62	90.7817
210.661	83.1116
220.703	90.314
230.744	88.747
240.785	86.7828
250.827	86.28
260.868	87.7757
270.909	95.8761
280.951	89.7907
290.992	81.5537
301.033	88.4045
311.075	83.4665
321.116	78.2042
331.157	78.9348
341.199	77.8609
351.24	71.0166
361.281	71.6485
371.323	69.2155
381.364	62.8719
391.405	63.7829
401.447	60.8289
411.488	61.0817
421.529	56.8987
431.571	57.8915
441.612	55.7226
451.653	59.6245
461.695	55.4975
471.736	58.1941
481.777	49.013
491.819	54.8235
501.86	50.5504
511.901	50.8
521.943	52.2813
531.984	47.5965
542.025	50.8125
552.067	51.3682
562.108	49.4446
572.149	47.1787
582.191	51.7982
592.232	49.039
602.273	49.9346
612.315	56.2982
622.356	50.1358
632.397	54.6102
642.439	54.2478
652.48	58.966
662.521	58.9618
672.563	60.6947
682.604	62.7039
692.645	64.8716
702.687	67.2722
712.728	65.55
722.769	66.734
732.811	70.9553
742.852	74.5318
752.893	79.1539
762.935	85.7429
772.976	82.156
783.017	83.7956
793.059	84.55
803.1	92.5305
813.141	86.6947
823.183	97.2983
833.224	92.4121
843.265	94.8694
853.307	92.0258
863.348	94.1067
873.389	86.7298
883.431	80.4506
893.472	69.0417
903.513	63.2164
913.555	57.7027
923.596	52.6104
933.637	49.4138
943.679	46.045
953.72	49.1358
963.761	44.6521
973.803	42.1526
983.844	44.7234
993.885	46.4542
1003.93	44.9185
1013.97	43.7725
1024.01	47.0131
1034.05	50.4
1044.09	51.4345
1054.13	51.6893
1064.17	45.2613
1074.22	47.6801
1084.26	37.2939
1094.3	44.0648
1104.34	42.911
1114.38	42.3924
1124.42	41.5824
1134.46	35.0935
1144.51	32.5823
1154.55	35.1807
1164.59	36.6331
1174.63	34.9549
1184.67	30.4976
1194.71	31.2299
1204.75	34.3137
1214.79	38.2208
1224.84	40.2918
1234.88	34.0745
1244.92	39.5446
1254.96	39.8313
1265	42.4584
1275.04	45.2458
1285.08	49.8274
1295.13	60.007
1305.17	71.7464
1315.21	91.6945
1325.25	120.557
1335.29	151.802
1345.33	160.597
1355.37	148.829
1365.41	113.845
1375.46	88.4218
1385.5	70.2069
1395.54	61.5136
1405.58	54.0712
1415.62	47.8
1425.66	47.7602
1435.7	45.2305
1445.75	43.2331
1455.79	48.4065
1465.83	39.4744
1475.87	46.4765
1485.91	46.4726
1495.95	47.0002
1505.99	46.7411
1516.03	51.7066
1526.08	58.5119
1536.12	66.3545
1546.16	88.191
1556.2	128.921
1566.24	173.12
1576.28	206.639
1586.32	180.557
1596.37	152.164
1606.41	126.756
1616.45	107.328
1626.49	78.2169
1636.53	55.875
1646.57	40.8052
1656.61	32.7668
1666.65	29.5491
1676.7	28.1863
1686.74	23.3496
1696.78	23.2209
1706.82	22.3779
1716.86	22.5515
1726.9	26.4447
1736.94	24
1746.99	20.4074
1757.03	21.142
1767.07	21.4564
1777.11	20.8375
1787.15	22.5178
1797.19	21.5194
1807.23	20.2414
1817.27	18.4214
1827.32	22.2469
1837.36	23.135
1847.4	20.624
1857.44	24.6663
1867.48	19.2543
1877.52	23.4109
1887.56	17.9481
1897.61	28.9559
1907.65	21.0894
1917.69	23.0487
1927.73	20.1392
1937.77	21.8996
1947.81	21.2887
1957.85	19.8812
1967.89	19.9793
1977.94	21.723
1987.98	21.3507
1998.02	22.2277
2008.06	22.149
2018.1	23.1478
2028.14	16.6978
2038.18	21.4048
2048.23	25.535
2058.27	20.2863
2068.31	22.2774
2078.35	19.8452
2088.39	22.2737
2098.43	23.8475
2108.47	24.8934
2118.51	21.7089
2128.56	19.3722
2138.6	21.5896
2148.64	21.0479
2158.68	22.0271
2168.72	21.9529
2178.76	22.0804
2188.8	22.3177
2198.85	20.4045
2208.89	21.5998
2218.93	21.0511
2228.97	22.1671
2239.01	22.7468
2249.05	18.9714
2259.09	17.8423
2269.13	18.1506
2279.18	21.6691
2289.22	21.9682
2299.26	21.4757
2309.3	18.0437
2319.34	20.8454
2329.38	31.872
2339.42	24.1774
2349.47	20.6562
2359.51	23.7969
2369.55	21.9454
2379.59	18.9403
2389.63	18.9386
2399.67	24.6779
2409.71	28.0136
2419.75	26.0383
2429.8	26.876
2439.84	32.5757
2449.88	30.5652
2459.92	31.7864
2469.96	31.4558
2480	31.2225
2490.04	28.7796
2500.09	33.2057
2510.13	26.5879
2520.17	29.893
2530.21	31.6778
2540.25	29.8565
2550.29	33.0607
2560.33	30.5307
2570.37	38.0384
2580.42	37.3949
2590.46	40.5765
2600.5	45.3739
2610.54	50.7838
2620.58	56.1365
2630.62	67.5798
2640.66	72.6008
2650.71	95.8183
2660.75	108.938
2670.79	123.343
2680.83	131.361
2690.87	130.566
2700.91	120.908
2710.95	102.745
2720.99	93.0715
2731.04	72.3991
2741.08	62.0789
2751.12	52.4135
2761.16	44.9759
2771.2	38.7758
2781.24	37.5093
2791.28	37.5046
2801.32	36.1997
2811.37	28.4864
2821.41	31.4357
2831.45	34.2438
2841.49	32.587
2851.53	33.3288
2861.57	36.9349
2871.61	34.7879
2881.66	37.3765
2891.7	31.214
2901.74	38.0697
2911.78	39.7937
2921.82	38.7307
2931.86	35.6775
2941.9	35.6456
2951.95	35.7447
2961.99	34.5862
2972.03	29.9712
2982.07	31.604
2992.11	30.4149
3000	25.9264