Folder: Graphs/Example Data/Raman/Kara/05-28-10/Si wafer

Note: README.md
# Graphs
A macOS app that manages the organization of data files and graphs them.

Licensed under the MIT licensing terms: https://opensource.org/licenses/MIT

Hildreth wrote the precursor to Graphs, then called GraphBase, during his Ph.D. to help manage the data he was collecting as part of his research on Metal-assisted Chemical Etching of Silicon.  He was becoming overwhelmed by the hundreds of data files he was collecting every week and was inspired by the Papers and iTunes applications on OS X (now macOS) to create an application that managed data.  GraphBase provided an easy template to create a parser, a simple UI to organize data into hiarchical folders, and leveraged the DataGraph framework (http://www.visualdatatools.com/DataGraph/Framework/) for graphing.  DataGraph (http://www.visualdatatools.com/DataGraph/) is an amazing 2D graphing application and you will need to purchase a DataGraph license from Visual Data Tools in order to use Graphs.

Graphs is a rewrite of GraphBase in Swift written by Connor and then re-written again by Hildreth that has been open sourced for use by all.  Please not that you will need a DataGraph license to create the graph templates used by the DataGraph framework underlying Graphs.  Hildreth plans to continue evolving this application.  The next plan improvements are: multithreading for import and parsing using the new Results type in Swift; and begin switching over to SwiftUI for the UI.  Long term, we hope to add support for data analysis and extraction.

# Overview
Graphs is a data management tool that allows you to store your raw data files in a text formate (CSV, tab delimited, etc.) and then have those files parsed and graphed when selected.  Graphs uses the DataGraph fromework 

To use Graphs, first you create an example graph, what we call a Graph Template, in DataGraph.  Format the graph the way you want it to look and make sure that the Data Columns are in the same order as the columns in your data.  Next, you  add your "Graph Template" to Graphs using either the Graph Template Inspector on the right side of Graphs using using the "+" sign on the bottom left of the application.  You can also drag-and-drop the file onto a folder in the Source List.  Once you add a Graph Template, you can assign it to be the default Graph Template for a folder and any sub-folders using the Folder Inspector.

The second step is to make a Paser using the Parser Inspector.  It might be helpful to have an example file already in Graphs (see Step 3) because you can use the Text Inspector to see what lines your Experimental Details, Header, and Data start at.  Add a Parse Template using the + sign in the Parse Inspector's table and give the Parse Template a name.  If your data has experimental details at the top, then select the checkbox and set the starting and ending lines for this information.  If your data has a Header, select the Header checkbox, give it starting and ending line numbers, and then select the type of s

File: Si 1.txt
200	114.251
208.696	113.004
217.391	115.982
226.087	117.597
234.783	125.652
243.478	127.415
252.174	126.492
260.87	119.603
269.565	125.56
278.261	128.582
286.957	126.884
295.652	135.733
304.348	138.915
313.043	125.461
321.739	112.475
330.435	115.711
339.13	114.4
347.826	101.179
356.522	110.099
365.217	95.9838
373.913	91.6473
382.609	86.5303
391.304	78.6382
400	76.2579
408.696	82.2209
417.391	76.8239
426.087	73.5197
434.783	73.4277
443.478	74.192
452.174	64.3406
460.87	62.2075
469.565	60.6618
478.261	63.9949
486.957	75.2511
495.652	87.2879
504.348	94.2169
513.043	202.951
521.739	3720.31
530.435	332.611
539.13	122.963
547.826	90.2362
556.522	72.4689
565.217	64.4646
573.913	67.095
582.609	64.1205
591.304	58.2318
600	59.1993
608.696	72.1797
617.391	70.5004
626.087	66.4261
634.783	69.659
643.478	74.2553
652.174	71.228
660.87	79.0846
669.565	84.7281
678.261	80.5498
686.957	79.8099
695.652	75.5214
704.348	81.3089
713.043	81.9618
721.739	80.2685
730.435	92.9672
739.13	89.1224
747.826	97.7076
756.522	99.7184
765.217	104.116
773.913	98.5233
782.609	108.558
791.304	110.696
800	115.572
808.696	125.146
817.391	126.555
826.087	130.669
834.783	125.726
843.478	135.531
852.174	123.005
860.87	131.134
869.565	123.099
878.261	111.219
886.957	103.92
895.652	94.8924
904.348	87.3943
913.043	79.9905
921.739	75.7245
930.435	84.4559
939.13	105.051
947.826	127.11
956.522	121.836
965.217	126.038
973.913	124.189
982.609	124.071
991.304	111.011
1000	83.4473
1008.7	71.2985
1017.39	68.3741
1026.09	61.6859
1034.78	58.7028
1043.48	55.4749
1052.17	37.6111
1060.87	37.6532
1069.57	37.9587
1078.26	31.4018
1086.96	29.9694
1095.65	23.4086
1104.35	23.8177
1113.04	18.2
1121.74	21.3081
1130.43	20.3168
1139.13	16.601
1147.83	13.8686
1156.52	11.5436
1165.22	11.3757
1173.91	12.2325
1182.61	12.1521
1191.3	12.46
1200	7.25105
1208.7	5.91183
1217.39	5.34936
1226.09	10.0327
1234.78	11.584
1243.48	3.15704
1252.17	7.65202
1260.87	7.21974
1269.57	8.95653
1278.26	4.71188
1286.96	9.53454
1295.65	4.55611
1304.35	5.57056
1313.04	3.23415
1321.74	5.42601
1330.43	10.0297
1339.13	7.48517
1347.83	11.2518
1356.52	5.85298
1365.22	6.17666
1373.91	11.9708
1382.61	5.58971
1391.3	6.9396
1400	7.28205
1408.7	8.0173
1417.39	6.67919
1426.09	2.44468
1434.78	3.73525
1443.48	9.35097
1452.17	8.95797
1460.87	7.37381
1469.57	8.81216
1478.26	5.8522
1486.96	5.40076
1495.65	7.31741
1504.35	5.31443
1513.04	7.72402
1521.74	9.05145
1530.43	7.11013
1539.13	4.68294
1547.83	5.62092
1556.52	18.8412
1565.22	1.8481
1573.91	1.12311
1582.61	9.57196
1591.3	8.16643
1600	7.80888
1608.7	9.25329
1617.39	6.93644
1626.09	5.65728
1634.78	9.013
1643.48	9.85943
1652.17	11.7581
1660.87	8.11611
1669.57	12.3774
1678.26	12.7541
1686.96	13.0138
1695.65	11.8647
1704.35	11.3035
1713.04	11.5153
1721.74	7.86025
1730.43	1.98661
1739.13	5.14076
1747.83	7.70419
1756.52	5.11264
1765.22	1.74456
1773.91	7.18344
1782.61	3.03706
1791.3	3.29132
1800	4.1751
1808.7	3.82377
1817.39	4.90438
1826.09	7.2979
1834.78	5.8129
1843.48	4.4
1852.17	7.29587
1860.87	4.81691
1869.57	5.80137
1878.26	5.98334
1886.96	5.66977
1895.65	6.43098
1904.35	7.84912
1913.04	6.28268
1921.74	6.80571
1930.43	8.04953
1939.13	5.35053
1947.83	7.85705
1956.52	7.39871
1965.22	6.72144
1973.91	6.82362
1982.61	2.12256
1991.3	6.53658
2000	3.93866
2008.7	10.1259
2017.39	4.10512
2026.09	9.60423
2034.78	7.29863
2043.48	10.513
2052.17	6.99289
2060.87	11.0376
2069.57	9.80931
2078.26	11.2013
2086.96	5.86917
2095.65	8.95756
2104.35	10.9645
2113.04	8.1783
2121.74	6.56331
2130.43	10.4337
2139.13	9.08429
2147.83	10.0269
2156.52	6.60379
2165.22	8.76369
2173.91	10.4529
2182.61	8.82399
2191.3	13.4978
2200	8.68782
2208.7	12.5315
2217.39	10.9869
2226.09	10.4662
2234.78	10.1177
2243.48	12.264
2252.17	14.3709
2260.87	13.5761
2269.57	13.9019
2278.26	12.4828
2286.96	15.9753
2295.65	15.9871
2304.35	14.1124
2313.04	15.074
2321.74	15.6566
2330.43	63.3582
2339.13	19.0368
2347.83	13.2
2356.52	12.9636
2365.22	17.8868
2373.91	15.5322
2382.61	12.6826
2391.3	14.0623
2400	11.933
2408.7	12.8794
2417.39	16.9598
2426.09	15.8438
2434.78	14.4286
2443.48	14.979
2452.17	23.063
2460.87	16.223
2469.57	18.3161
2478.26	18.233
2486.96	18.596
2495.65	15.9686
2504.35	18.5977
2513.04	14.0364
2521.74	19.4
2530.43	14.5336
2539.13	19.6858
2547.83	18.8169
2556.52	20.6378
2565.22	15.438
2573.91	16.686
2582.61	19.0807
2591.3	16.242
2600	19.9348
2608.7	15.9035
2617.39	14.5127
2626.09	18.0015
2634.78	18.5939
2643.48	17.3926
2652.17	18.9688
2660.87	16.4733
2669.57	14.0509
2678.26	19.7361
2686.96	19.9187
2695.65	21.2687
2704.35	16.2448
2713.04	15.588
2721.74	15.2783
2730.43	17.1418
2739.13	15.6229
2747.83	18.2983
2756.52	21.2407
2765.22	17.056
2773.91	18.6009
2782.61	20.4522
2791.3	25.0654
2800	27.2303

File: Si 2.txt
200	97.9026
208.696	101.99
217.391	106.538
226.087	109.6
234.783	114.541
243.478	108.36
252.174	110.699
260.87	108.6
269.565	113.417
278.261	111.64
286.957	104.8
295.652	107.722
304.348	112.503
313.043	102.009
321.739	101.541
330.435	93
339.13	98.3686
347.826	88.8761
356.522	91.7318
365.217	80.2506
373.913	81.6609
382.609	78.8269
391.304	77.5173
400	66.344
408.696	64.8552
417.391	68.6932
426.087	64.7379
434.783	59.5932
443.478	59.7483
452.174	59.6575
460.87	57.5382
469.565	56.6502
478.261	61.5803
486.957	65.2782
495.652	59.2535
504.348	69.8376
513.043	113.845
521.739	1510.68
530.435	165.48
539.13	80.2816
547.826	59.6295
556.522	60.4154
565.217	57.1034
573.913	57.099
582.609	56.6542
591.304	57.6823
600	54.3193
608.696	59.6
617.391	60.6199
626.087	56.9944
634.783	62.4625
643.478	59.4603
652.174	68.9874
660.87	64.8928
669.565	70.0954
678.261	70.8185
686.957	75.8956
695.652	72.628
704.348	80.536
713.043	82.1431
721.739	84.137
730.435	83.0144
739.13	86.3764
747.826	92.7724
756.522	98.8517
765.217	98.2968
773.913	105.074
782.609	103.11
791.304	112.937
800	109.469
808.696	115.765
817.391	115.47
826.087	122.066
834.783	118.595
843.478	130.909
852.174	121.857
860.87	120.697
869.565	113.739
878.261	106.736
886.957	90.2365
895.652	90.541
904.348	74.2773
913.043	72.2263
921.739	61.4537
930.435	65.9487
939.13	72.6143
947.826	78.3195
956.522	81.9734
965.217	79.1603
973.913	81.2064
982.609	81.3274
991.304	72.4099
1000	60.043
1008.7	57.4373
1017.39	54.6636
1026.09	54.3231
1034.78	59.0144
1043.48	49.3189
1052.17	43.8641
1060.87	33.0844
1069.57	31.506
1078.26	34.4225
1086.96	21.2613
1095.65	28.2274
1104.35	22.1459
1113.04	20.9053
1121.74	18.3801
1130.43	15.972
1139.13	15.802
1147.83	9.4256
1156.52	14.0167
1165.22	8.50386
1173.91	7.95539
1182.61	9.4133
1191.3	7.8891
1200	8.70219
1208.7	5.35914
1217.39	7.25064
1226.09	5.02752
1234.78	2.35994
1243.48	6.96136
1252.17	1.49358
1260.87	9.16335
1269.57	2.44126
1278.26	0.849507
1286.96	1.30759
1295.65	11.2415
1304.35	2.53864
1313.04	0.172357
1321.74	0.205828
1330.43	8.47363
1339.13	7.40646
1347.83	4.37508
1356.52	7.57619
1365.22	3.86349
1373.91	9.74897
1382.61	4.791
1391.3	6.29261
1400	5.64915
1408.7	5.19166
1417.39	5.6188
1426.09	6.92926
1434.78	1.68232
1443.48	7.85291
1452.17	3.90508
1460.87	3.72099
1469.57	7.0913
1478.26	6.97382
1486.96	4.32968
1495.65	3.87236
1504.35	4.6
1513.04	4.38215
1521.74	1.65558
1530.43	3.49409
1539.13	-1.94181
1547.83	2.13674
1556.52	15.5663
1565.22	8.01911
1573.91	5.77948
1582.61	4.28868
1591.3	7.58834
1600	6.6309
1608.7	5.2
1617.39	4.85081
1626.09	3.53534
1634.78	6.84708
1643.48	13.2991
1652.17	9.44644
1660.87	11.3853
1669.57	6.41664
1678.26	11.1095
1686.96	182.879
1695.65	10.2066
1704.35	7.471
1713.04	5.70021
1721.74	4.89017
1730.43	5.52091
1739.13	2.57762
1747.83	-1.99323
1756.52	-2.28736
1765.22	1.95652
1773.91	3.8648
1782.61	3.55259
1791.3	2.27921
1800	1.87185
1808.7	1.31188
1817.39	3.51882
1826.09	1.79331
1834.78	2.34515
1843.48	4.35034
1852.17	3.6821
1860.87	2.78309
1869.57	5.05154
1878.26	0.126166
1886.96	-0.261783
1895.65	6.78458
1904.35	1.25265
1913.04	1.85512
1921.74	5.49388
1930.43	1.91517
1939.13	2.78422
1947.83	6.2346
1956.52	9.59588
1965.22	3.71252
1973.91	4.25092
1982.61	7.28032
1991.3	2.91218
2000	2.42634
2008.7	2.86019
2017.39	2.90512
2026.09	4.79958
2034.78	5.91952
2043.48	8.40348
2052.17	4.84095
2060.87	4.92957
2069.57	6.28218
2078.26	6.95923
2086.96	4.0275
2095.65	2.26059
2104.35	4.04528
2113.04	4.6
2121.74	5.71838
2130.43	4.88741
2139.13	7.02145
2147.83	5.93781
2156.52	6.00607
2165.22	6.43568
2173.91	10.3941
2182.61	5.89405
2191.3	4.31088
2200	9.70572
2208.7	7.72731
2217.39	7.40521
2226.09	10.733
2234.78	7.40544
2243.48	9.08753
2252.17	9.83165
2260.87	9.75235
2269.57	8.93613
2278.26	8.73945
2286.96	10.054
2295.65	10.0441
2304.35	8.53281
2313.04	11.7502
2321.74	4.00682
2330.43	54.3207
2339.13	6.92254
2347.83	5.12529
2356.52	4.85487
2365.22	4.34055
2373.91	7.10544
2382.61	8.36513
2391.3	5.01234
2400	3.75431
2408.7	10.4383
2417.39	5.15428
2426.09	5.1247
2434.78	5.32379
2443.48	9.63548
2452.17	13.5591
2460.87	10.0909
2469.57	7.06778
2478.26	11.035
2486.96	4.92057
2495.65	10.6028
2504.35	6.00383
2513.04	7.87992
2521.74	8.68755
2530.43	8.07878
2539.13	10.5715
2547.83	6.82329
2556.52	10.9018
2565.22	10.0507
2573.91	9.09141
2582.61	6.91597
2591.3	7.01847
2600	7.14595
2608.7	10.8623
2617.39	11.8183
2626.09	8.58923
2634.78	8.15952
2643.48	9.08884
2652.17	9.95123
2660.87	12.9541
2669.57	8.29478
2678.26	10.0154
2686.96	11.7604
2695.65	13.4499
2704.35	13.3104
2713.04	9.29414
2721.74	6.25896
2730.43	15.3012
2739.13	10.9461
2747.83	11.011
2756.52	8.0963
2765.22	12.0631
2773.91	18.6371
2782.61	15.1573
2791.3	19.3269
2800	17.2808