Folder: Graphs/Example Data/Raman/CNT - TIM/Raytheon/Al foil/2011/02-10-11 (part 2)

File: Batch 27 - top_1.txt
300	221.339
306.115	238.956
312.23	226.93
318.345	233.494
324.46	225.392
330.576	235.806
336.691	223.73
342.806	234.631
348.921	228.368
355.036	222.116
361.151	215.004
367.266	219.116
373.381	204.313
379.496	222.009
385.612	209.622
391.727	213.467
397.842	215.778
403.957	212.946
410.072	198.971
416.187	206.251
422.302	214.618
428.417	214.626
434.532	205.929
440.647	209.107
446.763	203.19
452.878	204.724
458.993	204.665
465.108	194.368
471.223	190.835
477.338	185.963
483.453	187.98
489.568	184.699
495.683	175.008
501.799	173
507.914	170.768
514.029	179.128
520.144	184.173
526.259	174.271
532.374	175.288
538.489	176.359
544.604	166.047
550.719	178.807
556.835	183.333
562.95	174.562
569.065	174.072
575.18	180.195
581.295	175.768
587.41	159.849
593.525	171.259
599.64	176.771
605.755	197.191
611.87	187.421
617.986	184.995
624.101	188.827
630.216	197.407
636.331	199.255
642.446	195.588
648.561	194.804
654.676	196.736
660.791	200.47
666.906	209.412
673.022	207.436
679.137	202.983
685.252	206.571
691.367	215.395
697.482	201.212
703.597	206.351
709.712	216.977
715.827	216.429
721.942	217.155
728.058	227.213
734.173	217.438
740.288	241.484
746.403	236.831
752.518	230.84
758.633	235.179
764.748	235.272
770.863	254.873
776.978	248.06
783.094	251.439
789.209	253.537
795.324	255.904
801.439	263.719
807.554	262.459
813.669	270.445
819.784	274.17
825.899	271.533
832.014	286.302
838.13	269.838
844.245	285.334
850.36	279.733
856.475	278.089
862.59	256.306
868.705	268.94
874.82	257.555
880.935	251.124
887.05	250.134
893.165	233.092
899.281	244.124
905.396	236.502
911.511	238.14
917.626	240.708
923.741	216.433
929.856	230.187
935.971	238.735
942.086	230.154
948.201	237.658
954.317	226.517
960.432	236.775
966.547	239.278
972.662	229.439
978.777	239.605
984.892	243.445
991.007	249.068
997.122	253.3
1003.24	259.14
1009.35	272.233
1015.47	273.594
1021.58	291.857
1027.7	303.89
1033.81	335.359
1039.93	329.443
1046.04	339.3
1052.16	335.291
1058.27	349.14
1064.39	351.14
1070.5	368.449
1076.62	376.732
1082.73	390.611
1088.85	400.46
1094.96	410.434
1101.08	421.831
1107.19	432.982
1113.31	447.181
1119.42	459.224
1125.54	481.473
1131.65	474.861
1137.77	506.117
1143.88	521.739
1150	524.246
1156.12	558.052
1162.23	557.852
1168.35	561.33
1174.46	592.702
1180.58	596.229
1186.69	602.152
1192.81	627.245
1198.92	633.544
1205.04	645.444
1211.15	656.657
1217.27	693.161
1223.38	709.407
1229.5	731.707
1235.61	752.648
1241.73	786.57
1247.84	822.646
1253.96	859.22
1260.07	913.935
1266.19	961.017
1272.3	1020.24
1278.42	1074.11
1284.53	1150.65
1290.65	1224.37
1296.76	1319.66
1302.88	1428.05
1308.99	1522.91
1315.11	1665.28
1321.22	1743.84
1327.34	1858.35
1333.45	1945.07
1339.57	1996.58
1345.68	1984.91
1351.8	1965.51
1357.91	1872.7
1364.03	1753.27
1370.14	1668.12
1376.26	1563.14
1382.37	1430.12
1388.49	1387.86
1394.6	1305.14
1400.72	1235.25
1406.83	1151.26
1412.95	1110.31
1419.06	1057.96
1425.18	1040.36
1431.29	1039.48
1437.41	1023.99
1443.53	988.944
1449.64	976.079
1455.76	980.701
1461.87	948.37
1467.99	969.312
1474.1	974.344
1480.22	967.632
1486.33	965.352
1492.45	960.364
1498.56	976.87
1504.68	988.446
1510.79	993.71
1516.91	1010.14
1523.02	1017.57
1529.14	1054.8
1535.25	1089.68
1541.37	1169.15
1547.48	1230.43
1553.6	1345.4
1559.71	1433.54
1565.83	1547.66
1571.94	1674.34
1578.06	1806.4
1584.17	1901.8
1590.29	1957.54
1596.4	1962.9
1602.52	1892.58
1608.63	1795.04
1614.75	1661.42
1620.86	1442.56
1626.98	1231.65
1633.09	1050.41
1639.21	894.885
1645.32	749.097
1651.44	644.81
1657.55	560.883
1663.67	471.207
1669.78	407.018
1675.9	350.698
1682.01	313.436
1688.13	289.982
1694.24	267.35
1700.36	244.692
1706.47	231.864
1712.59	220.142
1718.71	206.729
1724.82	205.387
1730.94	199.236
1737.05	194.644
1743.17	191.672
1749.28	190.173
1755.4	188.144
1761.51	177.607
1767.63	176.722
1773.74	181.263
1779.86	184.163
1785.97	163.023
1792.09	176.926
1798.2	169.463
1804.32	175.186
1810.43	166.372
1816.55	170.666
1822.66	171.482
1828.78	166.887
1834.89	166.448
1841.01	167.336
1847.12	161.563
1853.24	164.734
1859.35	165.322
1865.47	160.547
1871.58	173.797
1877.7	170.734
1883.81	163.418
1889.93	170.233
1896.04	166.021
1902.16	166.758
1908.27	163.803
1914.39	170.25
1920.5	159.714
1926.62	162.303
1932.73	162.285
1938.85	155.86
1944.96	167.374
1951.08	166.694
1957.19	168.628
1963.31	165.534
1969.42	159.777
1975.54	169.416
1981.65	169.187
1987.77	171.509
1993.88	166.22
2000	169.147