Folder: Graphs/Example Data/Raman/CNT - TIM/Raytheon/Al foil/2011/02-10-11

Note: README.md
# Graphs
A macOS app that manages the organization of data files and graphs them.

Licensed under the MIT licensing terms: https://opensource.org/licenses/MIT

Hildreth wrote the precursor to Graphs, then called GraphBase, during his Ph.D. to help manage the data he was collecting as part of his research on Metal-assisted Chemical Etching of Silicon.  He was becoming overwhelmed by the hundreds of data files he was collecting every week and was inspired by the Papers and iTunes applications on OS X (now macOS) to create an application that managed data.  GraphBase provided an easy template to create a parser, a simple UI to organize data into hiarchical folders, and leveraged the DataGraph framework (http://www.visualdatatools.com/DataGraph/Framework/) for graphing.  DataGraph (http://www.visualdatatools.com/DataGraph/) is an amazing 2D graphing application and you will need to purchase a DataGraph license from Visual Data Tools in order to use Graphs.

Graphs is a rewrite of GraphBase in Swift written by Connor and then re-written again by Hildreth that has been open sourced for use by all.  Please not that you will need a DataGraph license to create the graph templates used by the DataGraph framework underlying Graphs.  Hildreth plans to continue evolving this application.  The next plan improvements are: multithreading for import and parsing using the new Results type in Swift; and begin switching over to SwiftUI for the UI.  Long term, we hope to add support for data analysis and extraction.

# Overview
Graphs is a data management tool that allows you to store your raw data files in a text formate (CSV, tab delimited, etc.) and then have those files parsed and graphed when selected.  Graphs uses the DataGraph fromework 

To use Graphs, first you create an example graph, what we call a Graph Template, in DataGraph.  Format the graph the way you want it to look and make sure that the Data Columns are in the same order as the columns in your data.  Next, you  add your "Graph Template" to Graphs using either the Graph Template Inspector on the right side of Graphs using using the "+" sign on the bottom left of the application.  You can also drag-and-drop the file onto a folder in the Source List.  Once you add a Graph Template, you can assign it to be the default Graph Template for a folder and any sub-folders using the Folder Inspector.

The second step is to make a Paser using the Parser Inspector.  It might be helpful to have an example file already in Graphs (see Step 3) because you can use the Text Inspector to see what lines your Experimental Details, Header, and Data start at.  Add a Parse Template using the + sign in the Parse Inspector's table and give the Parse Template a name.  If your data has experimental details at the top, then select the checkbox and set the starting and ending lines for this information.  If your data has a Header, select the Header checkbox, give it starting and ending line numbers, and then select the type of s

File: Batch 25 - bottom.txt
300	274.402
306.115	295.412
312.23	282.786
318.345	295.822
324.46	288.09
330.576	287.23
336.691	286.5
342.806	277.067
348.921	294.177
355.036	268.647
361.151	270.714
367.266	268.794
373.381	262.069
379.496	256.984
385.612	254.989
391.727	259.954
397.842	252.404
403.957	256.982
410.072	243.432
416.187	252.25
422.302	239.071
428.417	245.854
434.532	241.475
440.647	241.09
446.763	239.834
452.878	229.958
458.993	236.618
465.108	231.854
471.223	224.795
477.338	230.324
483.453	211.7
489.568	212.737
495.683	205.737
501.799	212.995
507.914	208.769
514.029	205.842
520.144	200.878
526.259	219.307
532.374	208.354
538.489	208.864
544.604	197.293
550.719	206.597
556.835	209.361
562.95	223.688
569.065	208.488
575.18	223.497
581.295	221.278
587.41	212.158
593.525	215.735
599.64	219.248
605.755	217.657
611.87	213.138
617.986	208.008
624.101	218.147
630.216	221.026
636.331	226.576
642.446	225.715
648.561	229.939
654.676	235.467
660.791	230.631
666.906	231.559
673.022	227.219
679.137	237.179
685.252	232.806
691.367	228.318
697.482	238.061
703.597	240.981
709.712	248.991
715.827	245.523
721.942	253.212
728.058	241.769
734.173	260.964
740.288	249.483
746.403	256.337
752.518	260.91
758.633	264.198
764.748	263.816
770.863	257.976
776.978	272.862
783.094	288.457
789.209	290.809
795.324	281.249
801.439	308.34
807.554	294.383
813.669	290.896
819.784	282.89
825.899	301.072
832.014	315.803
838.13	305.265
844.245	310.37
850.36	311.609
856.475	287.724
862.59	286.265
868.705	278.669
874.82	283.142
880.935	284.123
887.05	272.656
893.165	270.682
899.281	264.108
905.396	263.39
911.511	247.633
917.626	263.608
923.741	262.171
929.856	256.232
935.971	262.115
942.086	241.286
948.201	252.049
954.317	246.094
960.432	256.301
966.547	254.75
972.662	262.921
978.777	264.307
984.892	262.596
991.007	279.495
997.122	287.379
1003.24	289.918
1009.35	296.547
1015.47	308.848
1021.58	308.141
1027.7	306.51
1033.81	333.178
1039.93	337.539
1046.04	355.275
1052.16	352.103
1058.27	361.838
1064.39	360.121
1070.5	373.239
1076.62	377.741
1082.73	388.196
1088.85	390.41
1094.96	409.182
1101.08	410.839
1107.19	420.384
1113.31	431.342
1119.42	426.013
1125.54	448.8
1131.65	439.917
1137.77	467.259
1143.88	475.793
1150	489.314
1156.12	489.012
1162.23	501.131
1168.35	503.348
1174.46	513.173
1180.58	528.614
1186.69	531.248
1192.81	546.473
1198.92	569.537
1205.04	589.511
1211.15	592.135
1217.27	620.312
1223.38	635.097
1229.5	665.057
1235.61	699.923
1241.73	718.135
1247.84	760.381
1253.96	774.142
1260.07	810.755
1266.19	877.777
1272.3	923.948
1278.42	973.673
1284.53	1028.69
1290.65	1110.27
1296.76	1172.79
1302.88	1282.02
1308.99	1371.03
1315.11	1505.43
1321.22	1616.92
1327.34	1694.36
1333.45	1725.97
1339.57	1734.82
1345.68	1683.09
1351.8	1621.48
1357.91	1553.51
1364.03	1426.65
1370.14	1326.23
1376.26	1244.48
1382.37	1151.08
1388.49	1087.56
1394.6	1034.51
1400.72	1011.81
1406.83	944.191
1412.95	915.307
1419.06	903.123
1425.18	890.432
1431.29	886.111
1437.41	848.155
1443.53	819.931
1449.64	851.501
1455.76	824.035
1461.87	828.918
1467.99	817.952
1474.1	844.89
1480.22	844.463
1486.33	827.823
1492.45	843.274
1498.56	858.745
1504.68	841.948
1510.79	871.298
1516.91	892.901
1523.02	923.312
1529.14	957.971
1535.25	1006.07
1541.37	1073.08
1547.48	1175.21
1553.6	1287.45
1559.71	1349.51
1565.83	1445.77
1571.94	1550.55
1578.06	1611.3
1584.17	1609.33
1590.29	1612.38
1596.4	1541.85
1602.52	1445.4
1608.63	1330.49
1614.75	1158.02
1620.86	1000.59
1626.98	874.152
1633.09	753.232
1639.21	652.364
1645.32	554.569
1651.44	480.67
1657.55	419.08
1663.67	376.016
1669.78	338.963
1675.9	304.596
1682.01	292.604
1688.13	274.156
1694.24	257.369
1700.36	244.927
1706.47	237.981
1712.59	225.101
1718.71	217.114
1724.82	210.221
1730.94	206.425
1737.05	202.002
1743.17	196.603
1749.28	207.82
1755.4	199.691
1761.51	185.887
1767.63	192.504
1773.74	192.217
1779.86	189.728
1785.97	178.953
1792.09	182.429
1798.2	167.165
1804.32	182.685
1810.43	182.525
1816.55	174.754
1822.66	181.112
1828.78	173.373
1834.89	172.873
1841.01	173.688
1847.12	170.253
1853.24	169.752
1859.35	174.047
1865.47	167.283
1871.58	170.472
1877.7	172.213
1883.81	171.832
1889.93	179.349
1896.04	166.566
1902.16	161.028
1908.27	171.405
1914.39	163.052
1920.5	164.622
1926.62	168.172
1932.73	164.297
1938.85	169.18
1944.96	160.063
1951.08	168.199
1957.19	160.749
1963.31	168.533
1969.42	161.532
1975.54	162.779
1981.65	166.714
1987.77	164.475
1993.88	166.563
2000	165.093

File: Batch 25 - top.txt
300	87.8465
306.115	104.794
312.23	89.634
318.345	82.7375
324.46	80.5881
330.576	95.2648
336.691	88.9898
342.806	81.1125
348.921	75.3313
355.036	73.3601
361.151	67.1397
367.266	68.7986
373.381	66.3095
379.496	68.9725
385.612	57.4636
391.727	70.7873
397.842	54.883
403.957	62.362
410.072	55.9786
416.187	52.2578
422.302	51.4308
428.417	50.0901
434.532	55.3268
440.647	49.2796
446.763	36.5709
452.878	36.3033
458.993	33.1316
465.108	47.3519
471.223	32.509
477.338	28.0184
483.453	22.0687
489.568	14.1326
495.683	15.0055
501.799	16.0746
507.914	5.10293
514.029	2.02529
520.144	-3.26368
526.259	-4.85133
532.374	1.09565
538.489	-7.03957
544.604	3.44765
550.719	-4.08781
556.835	2.85145
562.95	0.734923
569.065	-9.64701
575.18	-8.79993
581.295	4.46698
587.41	-4.0496
593.525	-9.13224
599.64	-2.27436
605.755	11.2941
611.87	3.55602
617.986	5.24754
624.101	14.5025
630.216	4.86051
636.331	9.95014
642.446	-9.98842
648.561	11.5304
654.676	11.6819
660.791	14.5023
666.906	10.6147
673.022	4.70271
679.137	11.3618
685.252	13.3232
691.367	8.48169
697.482	20.0652
703.597	11.3792
709.712	15.917
715.827	9.07082
721.942	15.8149
728.058	27.1351
734.173	29.6358
740.288	31.1018
746.403	38.642
752.518	26.9953
758.633	41.1229
764.748	36.3516
770.863	41.8669
776.978	36.1985
783.094	35.7178
789.209	47.2951
795.324	37.193
801.439	60.4268
807.554	50.8251
813.669	53.769
819.784	64.7759
825.899	69.8864
832.014	62.7974
838.13	65.8911
844.245	70.5362
850.36	68.3131
856.475	64.0807
862.59	47.9187
868.705	45.9192
874.82	31.1407
880.935	34.3811
887.05	23.3978
893.165	14.7355
899.281	21.5355
905.396	0.822186
911.511	-3.45563
917.626	11.4503
923.741	-3.54282
929.856	1.5922
935.971	-5.33569
942.086	4.54117
948.201	-4.41768
954.317	2.21198
960.432	3.88602
966.547	-12.5527
972.662	-5.33139
978.777	-9.4547
984.892	-13.3257
991.007	-10.7464
997.122	3.26779
1003.24	-12.815
1009.35	-21.2215
1015.47	-12.7062
1021.58	-15.8557
1027.7	2.49879
1033.81	-14.9398
1039.93	-0.606011
1046.04	0.89203
1052.16	-7.37803
1058.27	-11.8605
1064.39	-8.19235
1070.5	-11.07
1076.62	-3.58441
1082.73	-2.0015
1088.85	-0.38472
1094.96	-14.1968
1101.08	-1.26899
1107.19	5.90264
1113.31	0.571206
1119.42	-2.2561
1125.54	-0.895823
1131.65	17.5
1137.77	11.3769
1143.88	17.6611
1150	18.258
1156.12	41.8752
1162.23	30.4787
1168.35	26.8392
1174.46	27.3341
1180.58	40.3689
1186.69	33.7015
1192.81	42.6512
1198.92	41.3643
1205.04	68.7881
1211.15	58.5755
1217.27	63.1902
1223.38	81.7488
1229.5	100.809
1235.61	127.076
1241.73	136.712
1247.84	176.974
1253.96	206.192
1260.07	225.5
1266.19	270.782
1272.3	329.945
1278.42	380.559
1284.53	453.432
1290.65	525.625
1296.76	610.041
1302.88	699.246
1308.99	816.723
1315.11	945.322
1321.22	1095.57
1327.34	1190.99
1333.45	1276.72
1339.57	1360.23
1345.68	1316.45
1351.8	1211.95
1357.91	1131.13
1364.03	988.301
1370.14	858.824
1376.26	744.574
1382.37	629.495
1388.49	507.808
1394.6	446.326
1400.72	353.483
1406.83	292.987
1412.95	235.062
1419.06	172.005
1425.18	152.629
1431.29	118.063
1437.41	105.408
1443.53	62.5111
1449.64	44.7372
1455.76	45.9634
1461.87	4.63391
1467.99	17.4453
1474.1	-3.22164
1480.22	19.4967
1486.33	17.8019
1492.45	54.4334
1498.56	95.8685
1504.68	123.056
1510.79	161.36
1516.91	177.856
1523.02	229.831
1529.14	309.735
1535.25	385.62
1541.37	458.837
1547.48	600.947
1553.6	727.332
1559.71	837.029
1565.83	985.212
1571.94	1143.16
1578.06	1281.56
1584.17	1376.63
1590.29	1392.78
1596.4	1370.33
1602.52	1327.5
1608.63	1195.82
1614.75	1059.58
1620.86	882.041
1626.98	708.113
1633.09	566.215
1639.21	422.555
1645.32	301.21
1651.44	222.278
1657.55	139.351
1663.67	87.8511
1669.78	47.4264
1675.9	23.6582
1682.01	8.94874
1688.13	-3.28049
1694.24	-5.28355
1700.36	0.60571
1706.47	-4.03201
1712.59	3.98898
1718.71	-2.75573
1724.82	-0.738898
1730.94	3.51429
1737.05	0.743784
1743.17	-5.91318
1749.28	0.830931
1755.4	-11.076
1761.51	-6.5212
1767.63	-0.0419774
1773.74	-6.65115
1779.86	-10.555
1785.97	-2.05153
1792.09	-1.92413
1798.2	-5.45592
1804.32	-7.62135
1810.43	-14.5808
1816.55	-13.869
1822.66	-9.62869
1828.78	-7.4994
1834.89	7.6313
1841.01	4.57857
1847.12	13.7951
1853.24	2.60926
1859.35	4.90236
1865.47	8.03528
1871.58	2.67688
1877.7	-7.01643
1883.81	1.45505
1889.93	4.13242
1896.04	3.85145
1902.16	10.5518
1908.27	3.25145
1914.39	10.7148
1920.5	9.96553
1926.62	0.574078
1932.73	6.13476
1938.85	6.61563
1944.96	7.35545
1951.08	-2.15191
1957.19	6.65674
1963.31	8.98229
1969.42	13.7478
1975.54	15.3992
1981.65	12.5851
1987.77	11.4938
1993.88	5.82242
2000	15.0927

File: Batch 26 - bottom_1.txt
300	78.5363
306.115	106.103
312.23	91.0774
318.345	100.272
324.46	79.9706
330.576	100.9
336.691	82.0235
342.806	71.9302
348.921	81.6448
355.036	77.0072
361.151	66.2675
367.266	71.2107
373.381	60.1549
379.496	70.1937
385.612	68.9979
391.727	62.0801
397.842	48.6927
403.957	66.2774
410.072	51.4245
416.187	62.0983
422.302	40.6584
428.417	36.2589
434.532	40.7324
440.647	46.306
446.763	32.0085
452.878	42.4939
458.993	31.4385
465.108	39.0953
471.223	25.3841
477.338	13.9266
483.453	11.8926
489.568	-4.48941
495.683	13.1953
501.799	0.996548
507.914	3.42568
514.029	-10.5074
520.144	-11.1726
526.259	-14.5747
532.374	-14.452
538.489	-7.34684
544.604	-5.47376
550.719	-1.14946
556.835	-2.76214
562.95	-7.06334
569.065	-23.0612
575.18	-1.65065
581.295	-5.21026
587.41	-2.88932
593.525	-5.99287
599.64	-8.75032
605.755	-5.26214
611.87	-0.269718
617.986	-6.49136
624.101	16.5158
630.216	-6.95407
636.331	4.6355
642.446	19.0422
648.561	-7.01196
654.676	22.5076
660.791	3.82689
666.906	0.633306
673.022	8.27345
679.137	-1.68455
685.252	-0.387023
691.367	11.0508
697.482	8.33401
703.597	15.2283
709.712	12.9648
715.827	17.1946
721.942	11.2505
728.058	16.1383
734.173	18.6599
740.288	32.5819
746.403	26.6857
752.518	17.6712
758.633	33.3663
764.748	26.099
770.863	30.5467
776.978	28.2291
783.094	40.7076
789.209	51.449
795.324	63.652
801.439	42.4874
807.554	50.3538
813.669	57.8638
819.784	72.0309
825.899	56.8831
832.014	76.1199
838.13	57.743
844.245	61.7218
850.36	73.3286
856.475	63.0801
862.59	52.9349
868.705	42.8037
874.82	40.9253
880.935	28.5415
887.05	21.193
893.165	8.97225
899.281	12.6697
905.396	11.0718
911.511	-4.55402
917.626	2.82204
923.741	1.76612
929.856	3.6424
935.971	9.45875
942.086	-15.9608
948.201	-27.2087
954.317	-24.3381
960.432	-19.3415
966.547	-41.6627
972.662	-50.9557
978.777	-49.7767
984.892	-49.5588
991.007	-57.9719
997.122	-55.0874
1003.24	-71.4572
1009.35	-56.8776
1015.47	-51.8209
1021.58	-52.0959
1027.7	-55.6547
1033.81	-56.6485
1039.93	-45.294
1046.04	-49.8998
1052.16	-47.1023
1058.27	-55.948
1064.39	-53.889
1070.5	-43.615
1076.62	-42.0782
1082.73	-46.915
1088.85	-29.0388
1094.96	-34.1257
1101.08	-36.7628
1107.19	-23.7379
1113.31	-20.7965
1119.42	-15.5906
1125.54	-14.8993
1131.65	7.17218
1137.77	12.2179
1143.88	19.5776
1150	35.839
1156.12	17.3723
1162.23	46.302
1168.35	31.4432
1174.46	20.997
1180.58	41.2295
1186.69	69.0645
1192.81	22.8888
1198.92	43.8752
1205.04	77.6028
1211.15	71.7527
1217.27	75.7475
1223.38	99.7155
1229.5	129.196
1235.61	151.689
1241.73	180.925
1247.84	196.18
1253.96	228.349
1260.07	276.354
1266.19	325.22
1272.3	393.781
1278.42	443.676
1284.53	542.365
1290.65	610.409
1296.76	714.513
1302.88	839.707
1308.99	934.415
1315.11	1083.43
1321.22	1170.41
1327.34	1360.02
1333.45	1443.36
1339.57	1436.32
1345.68	1423.29
1351.8	1368.91
1357.91	1233.9
1364.03	1124.19
1370.14	930.628
1376.26	842.975
1382.37	704.16
1388.49	612.66
1394.6	476.369
1400.72	367.942
1406.83	325.818
1412.95	249.011
1419.06	192.637
1425.18	166.736
1431.29	143.378
1437.41	97.6784
1443.53	59.1312
1449.64	41.3957
1455.76	33.434
1461.87	21.0559
1467.99	-11.171
1474.1	12.5104
1480.22	26.8125
1486.33	70.1169
1492.45	90.6293
1498.56	131.684
1504.68	144.687
1510.79	175.047
1516.91	215.708
1523.02	258.227
1529.14	344.033
1535.25	434.126
1541.37	530.91
1547.48	638.577
1553.6	789.841
1559.71	908.791
1565.83	1069.94
1571.94	1252.53
1578.06	1415.02
1584.17	1541.27
1590.29	1634.28
1596.4	1606.68
1602.52	1566.1
1608.63	1441.89
1614.75	1259.89
1620.86	1051.82
1626.98	844.525
1633.09	654.468
1639.21	493.485
1645.32	372.592
1651.44	256.464
1657.55	186.219
1663.67	116.148
1669.78	77.2723
1675.9	43.3489
1682.01	28.6144
1688.13	21.721
1694.24	6.87753
1700.36	4.90292
1706.47	-0.643179
1712.59	1.71533
1718.71	2.75502
1724.82	0.367626
1730.94	1.00648
1737.05	-11.808
1743.17	2.02429
1749.28	-0.0739057
1755.4	-6.69214
1761.51	-8.09181
1767.63	-13.6709
1773.74	-11.8351
1779.86	-8.87563
1785.97	-10.4689
1792.09	-13.72
1798.2	-17.3943
1804.32	-11.8543
1810.43	-10.8222
1816.55	-12.7721
1822.66	-5.99555
1828.78	-19.358
1834.89	-20.7752
1841.01	-16.9357
1847.12	-1.72171
1853.24	-7.59882
1859.35	-16.6095
1865.47	-22.0219
1871.58	-8.28098
1877.7	-5.85061
1883.81	-3.38221
1889.93	-6.42258
1896.04	-9.01194
1902.16	-7.22538
1908.27	-7.2908
1914.39	-8.2604
1920.5	-3.16841
1926.62	-7.28837
1932.73	-3.32106
1938.85	-0.0986752
1944.96	-7.87905
1951.08	-14.9931
1957.19	-7.50892
1963.31	-2.159
1969.42	-10.784
1975.54	1.59841
1981.65	3.13535
1987.77	9.13789
1993.88	-0.88939
2000	-0.840052

File: Batch 26 - top_1.txt
300	102.251
306.115	119.505
312.23	112.946
318.345	102.131
324.46	97.7278
330.576	115.189
336.691	99.7333
342.806	78.444
348.921	93.5979
355.036	89.3349
361.151	86.9767
367.266	67.3132
373.381	77.3229
379.496	70.3798
385.612	71.3455
391.727	54.8226
397.842	73.9519
403.957	55.4149
410.072	74.1944
416.187	60.7154
422.302	39.1627
428.417	59.8774
434.532	55.8048
440.647	40.1787
446.763	40.5142
452.878	40.4778
458.993	33.5692
465.108	26.351
471.223	13.3247
477.338	14.8789
483.453	5.55538
489.568	8.31463
495.683	4.2648
501.799	0.379787
507.914	-5.18988
514.029	-6.20416
520.144	-13.5822
526.259	-26.0127
532.374	-26.8437
538.489	-4.14203
544.604	-10.1406
550.719	-14.0355
556.835	-13.3289
562.95	-10.8094
569.065	-6.11843
575.18	-17.4622
581.295	-17.6299
587.41	-13.953
593.525	-12.023
599.64	-10.3107
605.755	-10.1915
611.87	-0.650804
617.986	-15.1737
624.101	-15.3727
630.216	-3.20027
636.331	-10.4425
642.446	-9.33323
648.561	-15.4826
654.676	-2.86067
660.791	-11.0763
666.906	6.8745
673.022	15.5652
679.137	-3.65721
685.252	14.0888
691.367	-7.90036
697.482	2.229
703.597	10.5746
709.712	4.24298
715.827	3.71576
721.942	7.34607
728.058	2.29959
734.173	14.8215
740.288	23.7371
746.403	16.248
752.518	16.5412
758.633	27.869
764.748	13.7579
770.863	24.0822
776.978	37.4826
783.094	27.5201
789.209	29.0856
795.324	39.3665
801.439	38.0079
807.554	50.6756
813.669	60.2697
819.784	60.0601
825.899	64.3616
832.014	52.9793
838.13	70.8375
844.245	61.4436
850.36	69.3853
856.475	51.6359
862.59	47.4715
868.705	47.8037
874.82	35.3202
880.935	32.511
887.05	23.0672
893.165	22.7838
899.281	23.7866
905.396	22.4994
911.511	15.5557
917.626	-1.82941
923.741	12.7023
929.856	7.18368
935.971	12.5242
942.086	-6.73745
948.201	1.23326
954.317	8.46946
960.432	8.40635
966.547	-7.97854
972.662	4.42509
978.777	4.85874
984.892	-11.0529
991.007	11.1509
997.122	-18.5721
1003.24	-2.91454
1009.35	-9.0728
1015.47	-13.0261
1021.58	-7.2015
1027.7	0.386813
1033.81	-2.10105
1039.93	8.71413
1046.04	8.12676
1052.16	0.968394
1058.27	-2.17413
1064.39	-14.0214
1070.5	0.318779
1076.62	6.22951
1082.73	7.04405
1088.85	8.15128
1094.96	5.45218
1101.08	-1.30271
1107.19	16.7992
1113.31	9.05775
1119.42	11.4579
1125.54	2.18695
1131.65	26.1299
1137.77	30.1949
1143.88	2.68993
1150	37.4207
1156.12	24.9096
1162.23	31.9521
1168.35	36.6002
1174.46	44.6941
1180.58	49.486
1186.69	43.3947
1192.81	67.1072
1198.92	73.9022
1205.04	94.6249
1211.15	92.2975
1217.27	112.38
1223.38	134.911
1229.5	157.741
1235.61	180.706
1241.73	214.584
1247.84	246.46
1253.96	291.762
1260.07	342.619
1266.19	364.446
1272.3	439.405
1278.42	501.937
1284.53	564.333
1290.65	695.35
1296.76	786.837
1302.88	912.701
1308.99	1052.23
1315.11	1201.67
1321.22	1259.4
1327.34	1448.52
1333.45	1504.82
1339.57	1492.21
1345.68	1418.23
1351.8	1274.31
1357.91	1155.74
1364.03	1009.75
1370.14	823.566
1376.26	747.435
1382.37	608.056
1388.49	508.262
1394.6	433.794
1400.72	358.305
1406.83	302.212
1412.95	234.695
1419.06	184.96
1425.18	159.247
1431.29	90.1217
1437.41	95.3037
1443.53	66.7645
1449.64	31.8744
1455.76	67.5371
1461.87	49.727
1467.99	26.7471
1474.1	-10.1891
1480.22	6.44599
1486.33	46.3129
1492.45	83.5198
1498.56	113.311
1504.68	128.423
1510.79	181.58
1516.91	249.27
1523.02	313.385
1529.14	385.041
1535.25	457.25
1541.37	601.552
1547.48	705.552
1553.6	882.925
1559.71	1013.18
1565.83	1206.81
1571.94	1337.32
1578.06	1416.75
1584.17	1449.12
1590.29	1450.08
1596.4	1402.66
1602.52	1290.81
1608.63	1129.61
1614.75	939.549
1620.86	749.384
1626.98	559.011
1633.09	427.145
1639.21	311.451
1645.32	208.696
1651.44	136.508
1657.55	77.046
1663.67	44.1701
1669.78	21.2311
1675.9	-5.00814
1682.01	-11.155
1688.13	-7.39115
1694.24	-10.9645
1700.36	1.39637
1706.47	-1.41033
1712.59	-2.92051
1718.71	0.809427
1724.82	7.4031
1730.94	-10.725
1737.05	10.3177
1743.17	6.16229
1749.28	8.81481
1755.4	5.43435
1761.51	0.838215
1767.63	6.36934
1773.74	6.27803
1779.86	5.32888
1785.97	-3.5549
1792.09	-3.5181
1798.2	2.66828
1804.32	-3.29563
1810.43	1.85634
1816.55	-8.55782
1822.66	3.28903
1828.78	-1.41011
1834.89	1.86598
1841.01	-2.65673
1847.12	-9.53707
1853.24	-4.95399
1859.35	-10.1558
1865.47	-5.48074
1871.58	-7.35415
1877.7	-9.06801
1883.81	-2.50114
1889.93	1.6676
1896.04	-10.7744
1902.16	-3.8456
1908.27	-2.79168
1914.39	-12.1806
1920.5	-1.28832
1926.62	-7.66929
1932.73	-10.2813
1938.85	-8.88362
1944.96	-13.3394
1951.08	2.90248
1957.19	-3.84254
1963.31	-1.79602
1969.42	-4.26945
1975.54	-3.90083
1981.65	0.42243
1987.77	7.10495
1993.88	-2.11277
2000	5.50958

File: Batch 27 - bottom_1.txt
300	379.087
306.115	395.454
312.23	392.051
318.345	406.594
324.46	393.458
330.576	376.363
336.691	378.48
342.806	368.616
348.921	358.64
355.036	371.601
361.151	365.987
367.266	364.542
373.381	357.585
379.496	361.767
385.612	353.122
391.727	354.54
397.842	340.928
403.957	350.122
410.072	353.087
416.187	345.998
422.302	349.692
428.417	333.826
434.532	351.554
440.647	346.235
446.763	334.962
452.878	320.128
458.993	307.585
465.108	300.628
471.223	315.569
477.338	314.281
483.453	316.61
489.568	293.368
495.683	292.199
501.799	289.25
507.914	292.475
514.029	295.747
520.144	296.981
526.259	291.149
532.374	287.397
538.489	292.584
544.604	286.861
550.719	278.745
556.835	288.423
562.95	279.624
569.065	292.116
575.18	300.162
581.295	299.306
587.41	297.782
593.525	289.29
599.64	285.262
605.755	295.715
611.87	305.287
617.986	291.832
624.101	287.432
630.216	306.09
636.331	301.101
642.446	314.475
648.561	300.51
654.676	300.508
660.791	303.306
666.906	319.394
673.022	309.293
679.137	307.69
685.252	314.577
691.367	298.605
697.482	314.099
703.597	324.216
709.712	313.261
715.827	317.592
721.942	326.209
728.058	327.151
734.173	336.869
740.288	312.732
746.403	339.909
752.518	352.231
758.633	346.147
764.748	338.384
770.863	355.309
776.978	362.908
783.094	354.334
789.209	351.426
795.324	369.504
801.439	368.407
807.554	382.211
813.669	382.763
819.784	387.158
825.899	385.63
832.014	398.615
838.13	391.526
844.245	396.139
850.36	394.61
856.475	386.141
862.59	381.226
868.705	368.536
874.82	368.369
880.935	369.997
887.05	366.005
893.165	337.312
899.281	359.125
905.396	356.432
911.511	343.717
917.626	330.715
923.741	340.717
929.856	329.032
935.971	353.75
942.086	343.306
948.201	350.7
954.317	349.39
960.432	346.076
966.547	342.139
972.662	353.287
978.777	354.482
984.892	380.172
991.007	379.721
997.122	373.61
1003.24	382.172
1009.35	409.759
1015.47	406.844
1021.58	421.552
1027.7	438.514
1033.81	456.246
1039.93	481.303
1046.04	484.242
1052.16	491.471
1058.27	500.317
1064.39	505.744
1070.5	500.294
1076.62	540.604
1082.73	545.458
1088.85	545.743
1094.96	565.939
1101.08	581.357
1107.19	601.527
1113.31	593.193
1119.42	606.551
1125.54	644.505
1131.65	654.376
1137.77	660.544
1143.88	680.983
1150	714.474
1156.12	729.992
1162.23	728.73
1168.35	735.614
1174.46	767.351
1180.58	784.71
1186.69	762.1
1192.81	804.689
1198.92	817.727
1205.04	836.634
1211.15	872.917
1217.27	905.185
1223.38	932.095
1229.5	945.093
1235.61	1012.71
1241.73	1050.87
1247.84	1084.76
1253.96	1135.53
1260.07	1201.05
1266.19	1242.04
1272.3	1320.63
1278.42	1395.51
1284.53	1500.79
1290.65	1619.96
1296.76	1683.03
1302.88	1819.41
1308.99	1954.5
1315.11	2055.41
1321.22	2221.29
1327.34	2287.18
1333.45	2342.55
1339.57	2351.48
1345.68	2309.92
1351.8	2224.78
1357.91	2120.15
1364.03	2013.86
1370.14	1888.58
1376.26	1778.54
1382.37	1705.58
1388.49	1594.75
1394.6	1525.92
1400.72	1401.45
1406.83	1401.32
1412.95	1335.87
1419.06	1298.5
1425.18	1251.22
1431.29	1234
1437.41	1197.18
1443.53	1204.42
1449.64	1212.13
1455.76	1204.26
1461.87	1191.57
1467.99	1214.97
1474.1	1196.07
1480.22	1186.34
1486.33	1203.96
1492.45	1202.5
1498.56	1200.84
1504.68	1195.83
1510.79	1248.06
1516.91	1249.91
1523.02	1300.83
1529.14	1350.24
1535.25	1385.68
1541.37	1466.29
1547.48	1575.91
1553.6	1711.29
1559.71	1810.65
1565.83	1949.34
1571.94	2092.01
1578.06	2188.31
1584.17	2241.89
1590.29	2239.47
1596.4	2154.83
1602.52	2044.6
1608.63	1856.86
1614.75	1653.21
1620.86	1424.19
1626.98	1217.875
1633.09	1054.83
1639.21	919.007
1645.32	787.217
1651.44	682.239
1657.55	602.826
1663.67	487.328
1669.78	479.545
1675.9	437.899
1682.01	402.321
1688.13	378.984
1694.24	360.442
1700.36	342.77
1706.47	334.274
1712.59	319.478
1718.71	303.276
1724.82	293.919
1730.94	286.203
1737.05	283.948
1743.17	281.597
1749.28	281.814
1755.4	273.024
1761.51	265.02
1767.63	267.029
1773.74	255.358
1779.86	253.873
1785.97	254.707
1792.09	252.971
1798.2	246.442
1804.32	254.856
1810.43	251.602
1816.55	255.558
1822.66	244.024
1828.78	249.574
1834.89	239.765
1841.01	236.931
1847.12	235.543
1853.24	231.548
1859.35	236.528
1865.47	233.534
1871.58	237.974
1877.7	225.717
1883.81	240.002
1889.93	229.919
1896.04	229.153
1902.16	230.663
1908.27	222.211
1914.39	216.642
1920.5	221.189
1926.62	223.552
1932.73	214.19
1938.85	234.315
1944.96	222.912
1951.08	219.745
1957.19	223.472
1963.31	228.154
1969.42	233.239
1975.54	226.175
1981.65	223.36
1987.77	220.79
1993.88	229.196
2000	225.635