Folder: Graphs/Example Data/Raman/CNT - TIM/Raytheon/Al foil/2011/02-28-11

Note: README.md
# Graphs
A macOS app that manages the organization of data files and graphs them.

Licensed under the MIT licensing terms: https://opensource.org/licenses/MIT

Hildreth wrote the precursor to Graphs, then called GraphBase, during his Ph.D. to help manage the data he was collecting as part of his research on Metal-assisted Chemical Etching of Silicon.  He was becoming overwhelmed by the hundreds of data files he was collecting every week and was inspired by the Papers and iTunes applications on OS X (now macOS) to create an application that managed data.  GraphBase provided an easy template to create a parser, a simple UI to organize data into hiarchical folders, and leveraged the DataGraph framework (http://www.visualdatatools.com/DataGraph/Framework/) for graphing.  DataGraph (http://www.visualdatatools.com/DataGraph/) is an amazing 2D graphing application and you will need to purchase a DataGraph license from Visual Data Tools in order to use Graphs.

Graphs is a rewrite of GraphBase in Swift written by Connor and then re-written again by Hildreth that has been open sourced for use by all.  Please not that you will need a DataGraph license to create the graph templates used by the DataGraph framework underlying Graphs.  Hildreth plans to continue evolving this application.  The next plan improvements are: multithreading for import and parsing using the new Results type in Swift; and begin switching over to SwiftUI for the UI.  Long term, we hope to add support for data analysis and extraction.

# Overview
Graphs is a data management tool that allows you to store your raw data files in a text formate (CSV, tab delimited, etc.) and then have those files parsed and graphed when selected.  Graphs uses the DataGraph fromework 

To use Graphs, first you create an example graph, what we call a Graph Template, in DataGraph.  Format the graph the way you want it to look and make sure that the Data Columns are in the same order as the columns in your data.  Next, you  add your "Graph Template" to Graphs using either the Graph Template Inspector on the right side of Graphs using using the "+" sign on the bottom left of the application.  You can also drag-and-drop the file onto a folder in the Source List.  Once you add a Graph Template, you can assign it to be the default Graph Template for a folder and any sub-folders using the Folder Inspector.

The second step is to make a Paser using the Parser Inspector.  It might be helpful to have an example file already in Graphs (see Step 3) because you can use the Text Inspector to see what lines your Experimental Details, Header, and Data start at.  Add a Parse Template using the + sign in the Parse Inspector's table and give the Parse Template a name.  If your data has experimental details at the top, then select the checkbox and set the starting and ending lines for this information.  If your data has a Header, select the Header checkbox, give it starting and ending line numbers, and then select the type of s

File: Al - B30 - bottom_1.txt
279.807
340.414
327.662
319.4
316.497
345.551
326.189
342.154
298.585
315.324
323.493
297.79
304.711
284.213
256.883
263.371
265.749
235.35
231.072
232.847
221.51
177.454
193.37
204.099
201.551
179.846
162.288
167.223
152.567
146.002
134.981
133.479
119.435
125.547
126.319
117.28
104.054
101.88
100.169
85.9497
90.679
80.9359
68.0895
47.569
492.164
48.9496
15.4886
10.801
-7.78725
-18.0807
-15.6321
-22.2043
-20.6165
-26.743
-28.5429
-27.0358
-37.4516
-48.4692
-31.2916
-49.32
-33.4251
-31.0678
-14.998
-25.3144
-8.53336
-23.5399
-26.4109
-25.0903
-10.9536
-12.2967
-12.7752
-6.28608
-15.8473
-7.46432
9.89597
-3.09284
-3.41357
-0.0625998
-14.0081
-3.49832
-17.3587
-7.88227
-24.7538
2.36454
4.65232
22.449
30.556
22.4825
32.7398
37.5905
48.1553
59.7631
63.0211
61.2353
79.5694
70.1789
100.419
87.5998
80.9483
98.5809
123.962
97.487
114.767
122.246
135.699
145.239
123.505
142.826
92.5816
93.6817
78.1961
58.7936
65.9571
39.7952
19.8696
-7.70376
12.3539
22.2635
8.20836
6.59188
-15.2674
15.5641
11.0099
8.96484
4.29542
11.0758
25.0999
21.0132
34.6033
36.0233
45.8868
57.9596
55.18
57.5166
59.2533
71.6223
60.6828
35.9909
21.2612
33.6067
21.7199
36.621
5.85952
25.821
18.8494
10.3926
26.4008
39.8727
35.5588
48.4665
66.5193
83.2842
124.712
125.828
178.047
185.547
239.899
209.97
202.563
218.137
230.942
225.791
260.588
249.48
278.612
286.64
313.35
364.464
407.101
447.106
522.15
631.351
598.836
826.563
945.211
1058.46
1235.15
1449.51
1649.61
1904.24
2186.49
2451.02
2719.48
3002.66
3203.41
3370.54
3420.37
3298.34
3048.18
2808.23
2444.98
2129.01
1767.44
1496.99
1248.48
1039.68
850.643
692.615
546.746
430.117
343.556
230.887
168.889
156.569
70.0691
43.4443
4.71116
-38.7692
22.6602
90.4456
132.134
237.277
305.072
380.302
452.52
577.536
694.322
871.253
1033.84
1312.28
1630.7
1861.35
2249.34
2666.75
3085.96
3414.52
3666.61
3734.11
3672.16
3388.23
2995.41
2474.42
1960.22
1512.06
1159.8
869.026
640.419
420.438
277.442
173.498
73.5761
35.6756
9.94721
26.8525
13.0396
31.0969
-1.26496
1.33119
5.43915
16.1526
33.3561
0.978495
7.73406
5.78617
-13.7185
-3.6763
-23.6798
-18.6748
-18.0442
-18.4644
-15.5146
-22.5577
-13.8843
-0.386588
-9.49782
-17.997
-8.54857
-14.2021
-11.6167
-4.94496
-7.11239
8.40928
-6.54032
12.8827
-19.9415
0.971956
13.4828
26.7007
13.5911
24.2347
14.773
11.8534
12.2534
20.757
25.138
30.7515
19.7562
55.6819
52.2017
47.0823
34.5629
61.0713
62.5544
73.3845

File: Al - B30 - top_2.txt
310.397
326.876
328.127
355.57
347.661
339.394
351.13
357.135
363.43
337.194
323.649
343.246
346.119
335.807
332.062
295.156
311.321
299.246
317.484
270.243
282.043
270.005
267.669
262.443
260.455
258.157
266.174
261.046
237.608
239.725
232.869
230
222.797
231.309
233.228
212.855
215.987
214.544
195.673
220.409
190.99
205.576
174.161
190.652
186.953
168.589
165.58
136.955
119.22
146.167
118.899
131.951
124.222
120.793
122.615
130.6
122.982
123.758
125.596
131.244
141.31
152.468
144.799
151.511
156.092
147.339
165.514
165.235
165.876
180.952
200.497
194.804
182.75
205.286
205.077
209.138
214.914
211.277
212.91
220.161
204.368
223.597
216.73
243.524
252.359
258.694
278.24
279.515
288.014
311.794
304.474
319.614
339.211
351.233
346.816
359.698
357.791
370.639
372.247
389.045
399.214
393.663
433.959
420.293
411.827
424.893
441.985
452.105
418.264
401.784
391.83
406.023
384.601
352.554
367.9
358.152
346.064
369.38
356.939
380.049
380.134
370.581
391.918
399.144
431.255
458.723
482.486
513.733
543.355
566.766
608.495
633.363
701.674
697.189
725.507
763.608
760.803
782.938
795.338
824.768
834.388
837.57
872.648
898.718
944.819
954.618
987.181
1024.95
1049.16
1112.5
1116.55
1154.84
1194.44
1250.89
1294.76
1362.26
1393.41
1414.81
1456.62
1473.32
1504.58
1499.37
1563.56
1597.55
1654.68
1699.67
1752.87
1850.62
1882.27
1988.52
2076.57
2178.13
2294.49
2444.99
2560.45
2735.31
2866.86
3104.24
3362.49
3616.42
3918.92
4241.68
4540.8
4887.48
5086.16
5223.41
5248.36
5139.23
5004.28
4753.38
4410.02
4148.65
3868.67
3643.65
3407.97
3199.75
3027.21
2907.72
2801.51
2711.17
2639.3
2601.69
2513.44
2451.24
2503.19
2478.91
2480.19
2453.3
2431.24
2438.47
2472.19
2471.63
2503.06
2548.33
2606.88
2645.07
2742.61
2867.77
2989.15
3182.88
3464.76
3667.48
3983.94
4309.45
4625.68
4867.19
5003.62
4967.19
4806.05
4488.54
4031.51
3516.04
3021.88
2581.86
2188
1869.22
1604.28
1379.01
1165.17
999.158
905.099
798.713
722.865
662.478
618.521
577.317
545.538
503.584
497.552
452.309
467.411
446.121
436.326
428.409
410.696
424.005
406.786
420.118
412.528
399.529
403.061
409
375.734
388.618
404.077
387.821
393.602
392.59
396.467
389.944
416.366
384.783
388.26
395.971
376.707
382.499
391.834
372.626
374.387
386.14
394.555
387.277
396.281
389.364
394.461
396.138
396.346
399.265
379.141
406.492
505.957
402.254
402.241
399.333