Folder: Graphs/Example Data/Raman/CNT - TIM/Raytheon/Al foil/2011/03-21-11

Note: README.md
# Graphs
A macOS app that manages the organization of data files and graphs them.

Licensed under the MIT licensing terms: https://opensource.org/licenses/MIT

Hildreth wrote the precursor to Graphs, then called GraphBase, during his Ph.D. to help manage the data he was collecting as part of his research on Metal-assisted Chemical Etching of Silicon.  He was becoming overwhelmed by the hundreds of data files he was collecting every week and was inspired by the Papers and iTunes applications on OS X (now macOS) to create an application that managed data.  GraphBase provided an easy template to create a parser, a simple UI to organize data into hiarchical folders, and leveraged the DataGraph framework (http://www.visualdatatools.com/DataGraph/Framework/) for graphing.  DataGraph (http://www.visualdatatools.com/DataGraph/) is an amazing 2D graphing application and you will need to purchase a DataGraph license from Visual Data Tools in order to use Graphs.

Graphs is a rewrite of GraphBase in Swift written by Connor and then re-written again by Hildreth that has been open sourced for use by all.  Please not that you will need a DataGraph license to create the graph templates used by the DataGraph framework underlying Graphs.  Hildreth plans to continue evolving this application.  The next plan improvements are: multithreading for import and parsing using the new Results type in Swift; and begin switching over to SwiftUI for the UI.  Long term, we hope to add support for data analysis and extraction.

# Overview
Graphs is a data management tool that allows you to store your raw data files in a text formate (CSV, tab delimited, etc.) and then have those files parsed and graphed when selected.  Graphs uses the DataGraph fromework 

To use Graphs, first you create an example graph, what we call a Graph Template, in DataGraph.  Format the graph the way you want it to look and make sure that the Data Columns are in the same order as the columns in your data.  Next, you  add your "Graph Template" to Graphs using either the Graph Template Inspector on the right side of Graphs using using the "+" sign on the bottom left of the application.  You can also drag-and-drop the file onto a folder in the Source List.  Once you add a Graph Template, you can assign it to be the default Graph Template for a folder and any sub-folders using the Folder Inspector.

The second step is to make a Paser using the Parser Inspector.  It might be helpful to have an example file already in Graphs (see Step 3) because you can use the Text Inspector to see what lines your Experimental Details, Header, and Data start at.  Add a Parse Template using the + sign in the Parse Inspector's table and give the Parse Template a name.  If your data has experimental details at the top, then select the checkbox and set the starting and ending lines for this information.  If your data has a Header, select the Header checkbox, give it starting and ending line numbers, and then select the type of s

File: Al - 8micron - B3 - MW - 5min - bottom_1.txt
300	20.848
306.533	49.5262
313.067	59.9776
319.6	51.9623
326.134	59.9751
332.667	55.6153
339.201	51.8012
345.734	41.9119
352.267	40.5646
358.801	33.6413
365.334	25.3198
371.868	13.232
378.401	26.4502
384.935	25.4798
391.468	15.4096
398.002	15.2131
404.535	3.12695
411.068	9.673
417.602	9.20905
424.135	10.1533
430.669	-0.986005
437.202	4.51942
443.736	-10.2379
450.269	-4.02547
456.802	-13.0499
463.336	-7.4182
469.869	-11.6769
476.403	-20.5903
482.936	-7.62126
489.47	-31.5211
496.003	-35.1703
502.536	-44.0231
509.07	-50.2187
515.603	-53.144
522.137	-60.7037
528.67	-39.5333
535.204	-53.402
541.737	-47.4012
548.271	-46.8945
554.804	-55.7872
561.337	-49.7797
567.871	-60.7414
574.404	-58.0205
580.938	-58.1529
587.471	-52.3594
594.005	-43.6009
600.538	-47.3081
607.071	-57.7908
613.605	-52.5652
620.138	-47.8227
626.672	-42.2108
633.205	-35.152
639.739	-41.5871
646.272	-41.6725
652.806	-32.1454
659.339	-33.649
665.872	-36.5628
672.406	-45.026
678.939	-32.217
685.473	-38.5438
692.006	-17.3439
698.54	-26.5324
705.073	-26.0083
711.606	-14.7866
718.14	-22.4925
724.673	-23.8551
731.207	-9.38741
737.74	-12.6247
744.274	-17.7466
750.807	-12.3699
757.341	6.2615
763.874	0.369528
770.407	11.4141
776.941	12.1828
783.474	8.65062
790.008	14.5365
796.541	14.3233
803.075	31.8442
809.608	33.8372
816.141	22.6024
822.675	25.5532
829.208	39.089
835.742	43.2901
842.275	34.9227
848.809	45.0975
855.342	41.0182
861.875	51.4277
868.409	38.6918
874.942	20.7044
881.476	20.5585
888.009	18.3326
894.543	12.411
901.076	28.591
907.61	12.9749
914.143	9.73671
920.676	4.00002
927.21	7.70798
933.743	14.054
940.277	1.99525
946.81	6.3684
953.344	-6.70845
959.877	-10.6976
966.41	-27.2689
972.944	-9.61053
979.477	-6.93893
986.011	-8.63687
992.544	-10.447
999.078	-0.950256
1005.61	1.33213
1012.14	-8.06903
1018.68	-15.8446
1025.21	-11.1701
1031.74	14.5783
1038.28	2.46951
1044.81	11.3428
1051.35	2.39612
1057.88	20.9435
1064.41	-4.71754
1070.95	11.3703
1077.48	4.21289
1084.01	19.9879
1090.55	4.98633
1097.08	9.00141
1103.61	9.10123
1110.15	15.2576
1116.68	19.4999
1123.21	4.32537
1129.75	2.93288
1136.28	24.8339
1142.81	22.4439
1149.35	51.7336
1155.88	55.4451
1162.41	44.4592
1168.95	66.228
1175.48	38.5017
1182.01	56.252
1188.55	49.6034
1195.08	76.9893
1201.61	68.1184
1208.15	91.916
1214.68	108.538
1221.21	108.939
1227.75	141.804
1234.28	148.133
1240.81	165.153
1247.35	229.7
1253.88	254.738
1260.42	307.677
1266.95	328.011
1273.48	389.611
1280.02	461.464
1286.55	529.542
1293.08	607.967
1299.62	713.391
1306.15	831.897
1312.68	981.425
1319.22	1087.47
1325.75	1257.79
1332.28	1340.45
1338.82	1434.55
1345.35	1476.55
1351.88	1465.15
1358.42	1384.28
1364.95	1247.63
1371.48	1119.53
1378.02	997.496
1384.55	852.023
1391.08	726.727
1397.62	603.701
1404.15	483.388
1410.68	420.533
1417.22	304.522
1423.75	259.568
1430.28	192.096
1436.82	158.468
1443.35	114.334
1449.88	84.8417
1456.42	53.9166
1462.95	36.002
1469.48	19.7175
1476.02	6.57815
1482.55	36.2265
1489.09	74.3723
1495.62	113.493
1502.15	160.672
1508.69	182.144
1515.22	239.026
1521.75	306.594
1528.29	361.221
1534.82	461.033
1541.35	578.381
1547.89	915.771
1554.42	822.913
1560.95	1036.96
1567.49	1163.89
1574.02	1341.48
1580.55	1530.25
1587.09	1685.5
1593.62	1761.93
1600.15	1773.7
1606.69	1736.47
1613.22	1637.25
1619.75	1381.22
1626.29	1170.39
1632.82	935.829
1639.35	729.094
1645.89	586.711
1652.42	423.9
1658.95	298.654
1665.49	207.601
1672.02	127.36
1678.55	93.8895
1685.09	45.6416
1691.62	19.0105
1698.16	9.92759
1704.69	17.7859
1711.22	19.3966
1717.76	-3.79541
1724.29	-3.97737
1730.82	9.18939
1737.36	-1.74095
1743.89	-0.254081
1750.42	11.7475
1756.96	6.68294
1763.49	13.6845
1770.02	16.8859
1776.56	-3.4348
1783.09	1.90203
1789.62	-1.90081
1796.16	-0.185619
1802.69	-7.10854
1809.22	-13.8642
1815.76	-9.93261
1822.29	-4.83725
1828.82	7.60209
1835.36	-4.07327
1841.89	-1.32857
1848.42	-2.47226
1854.96	-9.45247
1861.49	1.57992
1868.02	-1.14384
1874.56	-6.30751
1881.09	-2.36665
1887.62	-0.745391
1894.16	1.50587
1900.69	-9.33039
1907.23	-1.51634
1913.76	-15.782
1920.29	-1.37242
1926.83	-7.31
1933.36	-10.4859
1939.89	-7.62487
1946.43	-14.3981
1952.96	-13.5347
1959.49	-10.8198
1966.03	-0.0794324
1972.56	-1.20214
1979.09	9.95732
1985.63	-8.4428
1992.16	-0.420698
1998.69	-0.803581
2000	-14.7114

File: Al - 8micron - B3 - MW - 5min - top_1.txt
300	127.583
306.533	161.998
313.067	189.496
319.6	196.832
326.134	177.62
332.667	178.652
339.201	161.846
345.734	189.77
352.267	181.689
358.801	170.496
365.334	177.049
371.868	178.762
378.401	163.883
384.935	165.642
391.468	163.5
398.002	156.913
404.535	142.974
411.068	157.951
417.602	155.948
424.135	148.951
430.669	155.479
437.202	156.83
443.736	139.072
450.269	144.316
456.802	145.65
463.336	140.383
469.869	136.017
476.403	120.393
482.936	108.014
489.47	105.244
496.003	103.55
502.536	91.484
509.07	86.5134
515.603	87.415
522.137	81.4252
528.67	85.729
535.204	80.7657
541.737	86.5313
548.271	93.7079
554.804	96.4261
561.337	90.7161
567.871	94.9892
574.404	103.902
580.938	101.989
587.471	99.3744
594.005	128.096
600.538	102.149
607.071	108.303
613.605	119.22
620.138	124.123
626.672	128.272
633.205	124.267
639.739	128.36
646.272	136.312
652.806	120.584
659.339	137.42
665.872	137.037
672.406	129.961
678.939	141.333
685.473	151.7
692.006	150.855
698.54	149.225
705.073	147.672
711.606	133.701
718.14	163.642
724.673	155.116
731.207	144.582
737.74	162.86
744.274	173.296
750.807	165.156
757.341	184.179
763.874	192.226
770.407	190.492
776.941	190.115
783.474	176.415
790.008	210.517
796.541	204.109
803.075	218.314
809.608	202.721
816.141	583.773
822.675	237.547
829.208	228.846
835.742	237.402
842.275	240.511
848.809	236.56
855.342	262.418
861.875	241.223
868.409	236.009
874.942	219.97
881.476	217.463
888.009	212.557
894.543	218.497
901.076	219.67
907.61	214.936
914.143	208.578
920.676	218.365
927.21	214.118
933.743	229.998
940.277	230.377
946.81	216.001
953.344	219.143
959.877	223.725
966.41	236.534
972.944	234.686
979.477	263.138
986.011	255.848
992.544	266.562
999.078	281.718
1005.61	284.101
1012.14	322.568
1018.68	333.652
1025.21	354.18
1031.74	361.86
1038.28	389.578
1044.81	409.881
1051.35	432.293
1057.88	466.096
1064.41	448.988
1070.95	486.946
1077.48	528.693
1084.01	514.557
1090.55	532.839
1097.08	568.788
1103.61	557.074
1110.15	612.008
1116.68	624.773
1123.21	694.074
1129.75	700.929
1136.28	727.066
1142.81	791.622
1149.35	838.616
1155.88	872.329
1162.41	892.823
1168.95	953.476
1175.48	988.291
1182.01	1006.22
1188.55	1042.35
1195.08	1079.24
1201.61	1075.37
1208.15	1116.13
1214.68	1190.94
1221.21	1228.75
1227.75	1261.02
1234.28	1371.76
1240.81	1394.22
1247.35	1457.57
1253.88	1536.01
1260.42	1641.9
1266.95	1732.08
1273.48	1825.01
1280.02	1956.57
1286.55	2075.52
1293.08	2209.78
1299.62	2369.6
1306.15	2549.91
1312.68	2696.34
1319.22	2886.66
1325.75	3048.81
1332.28	3213.66
1338.82	3299.82
1345.35	3344.31
1351.88	3345.46
1358.42	3247.18
1364.95	3142.64
1371.48	3057.83
1378.02	2915.96
1384.55	2745.44
1391.08	2582.39
1397.62	2470.59
1404.15	2338.84
1410.68	2252.13
1417.22	2162.09
1423.75	2097.46
1430.28	2020.87
1436.82	1969.67
1443.35	1950.92
1449.88	1903.39
1456.42	1898.55
1462.95	1855.46
1469.48	1857.07
1476.02	1859.21
1482.55	1900.62
1489.09	1891.98
1495.62	1883.13
1502.15	1882.54
1508.69	1898.89
1515.22	1893.23
1521.75	1939.7
1528.29	2002.94
1534.82	2034.44
1541.35	2121.2
1547.89	2225.79
1554.42	2322.86
1560.95	2526.87
1567.49	2671.56
1574.02	2869.35
1580.55	3110.42
1587.09	3366.48
1593.62	3487.24
1600.15	3556.2
1606.69	3502.84
1613.22	3260.9
1619.75	2900.25
1626.29	2493.67
1632.82	2114.96
1639.35	1797.14
1645.89	1501.27
1652.42	1271.56
1658.95	1062.26
1665.49	908.017
1672.02	766.181
1678.55	619.341
1685.09	544
1691.62	492.602
1698.16	425.203
1704.69	397.771
1711.22	363.318
1717.76	319.402
1724.29	294.798
1730.82	281.508
1737.36	271.605
1743.89	255.937
1750.42	247.835
1756.96	227.099
1763.49	232.02
1770.02	220.403
1776.56	211.357
1783.09	231.51
1789.62	205.871
1796.16	215.552
1802.69	210.298
1809.22	204.906
1815.76	209.96
1822.29	199.483
1828.82	213.14
1835.36	208.182
1841.89	200.121
1848.42	198.229
1854.96	197.609
1861.49	180.349
1868.02	185.706
1874.56	188.94
1881.09	200.251
1887.62	184.307
1894.16	185.546
1900.69	200.403
1907.23	177.408
1913.76	184.929
1920.29	188.163
1926.83	191.752
1933.36	197.618
1939.89	201.365
1946.43	182.798
1952.96	197.549
1959.49	184.891
1966.03	200.966
1972.56	200.134
1979.09	204.444
1985.63	200.035
1992.16	202.963
1998.69	206.266
2000	197.36

File: Al - 8micron - B3-bottom_1.txt
300	122.806
306.533	166.393
313.067	182.893
319.6	183.34
326.134	154.167
332.667	165.91
339.201	157.865
345.734	161.526
352.267	154.109
358.801	156.911
365.334	152.094
371.868	159.183
378.401	141.506
384.935	150.645
391.468	127.397
398.002	138.83
404.535	138.407
411.068	127.257
417.602	133.187
424.135	147.369
430.669	130.3
437.202	145.04
443.736	123.251
450.269	130.744
456.802	129.709
463.336	122.469
469.869	112.337
476.403	101.142
482.936	111.653
489.47	100.249
496.003	106.886
502.536	88.2204
509.07	80.6073
515.603	88.25
522.137	82.9284
528.67	84.2418
535.204	85.37
541.737	90.0843
548.271	92.5514
554.804	78.5972
561.337	90.8567
567.871	103.434
574.404	99.8408
580.938	95.7686
587.471	101.403
594.005	109.896
600.538	101.194
607.071	97.2932
613.605	108.084
620.138	115.549
626.672	112.419
633.205	109.305
639.739	133.881
646.272	117.985
652.806	121.04
659.339	140.798
665.872	135.175
672.406	121.288
678.939	135.424
685.473	144.7
692.006	142.265
698.54	141.025
705.073	129.93
711.606	145.618
718.14	155.914
724.673	158.747
731.207	154.102
737.74	162.693
744.274	173.384
750.807	177.665
757.341	175.661
763.874	180.62
770.407	193.517
776.941	196.382
783.474	185.438
790.008	191.418
796.541	201.385
803.075	193.712
809.608	215.822
816.141	221.441
822.675	212.013
829.208	226.692
835.742	227.9
842.275	233.799
848.809	236.93
855.342	241.992
861.875	232.263
868.409	222.915
874.942	214.079
881.476	224.537
888.009	220.569
894.543	202.558
901.076	197.153
907.61	205.077
914.143	195.154
920.676	208.846
927.21	193.363
933.743	182.52
940.277	204.065
946.81	213.154
953.344	208.073
959.877	215.927
966.41	229.522
972.944	207.363
979.477	222.598
986.011	226.694
992.544	235.384
999.078	252.966
1005.61	263.164
1012.14	290.176
1018.68	276.737
1025.21	289.896
1031.74	322.478
1038.28	351.459
1044.81	333.691
1051.35	359.159
1057.88	380.757
1064.41	386.557
1070.95	395.592
1077.48	418.595
1084.01	432.466
1090.55	432.883
1097.08	464.3
1103.61	489.135
1110.15	504.976
1116.68	505.63
1123.21	524.024
1129.75	555.198
1136.28	560.077
1142.81	610.568
1149.35	610.215
1155.88	639.684
1162.41	668.608
1168.95	694.205
1175.48	705.649
1182.01	711.987
1188.55	745.152
1195.08	758.156
1201.61	785.261
1208.15	787.864
1214.68	816.511
1221.21	843.838
1227.75	884.333
1234.28	923.241
1240.81	974.615
1247.35	1036.21
1253.88	1066.17
1260.42	1153.56
1266.95	1213.92
1273.48	1261.11
1280.02	1349.13
1286.55	1435.55
1293.08	1547.44
1299.62	1634.11
1306.15	1773.98
1312.68	1937.75
1319.22	2099.46
1325.75	2271.62
1332.28	2447.81
1338.82	2568.38
1345.35	2619.21
1351.88	2640.84
1358.42	2594.83
1364.95	2532.55
1371.48	2387.98
1378.02	2250.57
1384.55	2122.94
1391.08	2020.23
1397.62	1887.21
1404.15	1784.92
1410.68	1699.97
1417.22	1622.77
1423.75	1581.32
1430.28	1540.88
1436.82	1490.3
1443.35	1469.88
1449.88	1435.48
1456.42	1437.89
1462.95	1406.37
1469.48	1414.61
1476.02	1433.34
1482.55	1417.09
1489.09	1438.04
1495.62	1454.13
1502.15	1435.68
1508.69	1442.56
1515.22	1457.49
1521.75	1495.6
1528.29	1548.2
1534.82	1574.93
1541.35	1645.79
1547.89	1763.67
1554.42	1876.26
1560.95	2038.8
1567.49	2172.42
1574.02	2338.84
1580.55	2536.9
1587.09	2658.23
1593.62	2758.56
1600.15	2748.93
1606.69	2679.38
1613.22	2520.67
1619.75	2286.34
1626.29	2057.6
1632.82	1786.37
1639.35	1482.95
1645.89	1265.88
1652.42	1056.46
1658.95	879.229
1665.49	747.694
1672.02	612.556
1678.55	521.13
1685.09	450.206
1691.62	396.153
1698.16	344.12
1704.69	318.669
1711.22	301.886
1717.76	267.766
1724.29	248.311
1730.82	234.114
1737.36	222.786
1743.89	222.171
1750.42	209.056
1756.96	202.513
1763.49	196.404
1770.02	194.759
1776.56	194.864
1783.09	185.51
1789.62	198.217
1796.16	179.21
1802.69	190.67
1809.22	179.907
1815.76	183.607
1822.29	184.995
1828.82	180.192
1835.36	180.935
1841.89	190.201
1848.42	183.215
1854.96	188.033
1861.49	170.94
1868.02	175.254
1874.56	185.452
1881.09	183.424
1887.62	173.95
1894.16	195.034
1900.69	182.493
1907.23	183.874
1913.76	185.006
1920.29	173.738
1926.83	179.166
1933.36	182.539
1939.89	182.307
1946.43	185.367
1952.96	168.093
1959.49	175.933
1966.03	187.31
1972.56	185.622
1979.09	180.473
1985.63	185.305
1992.16	513.747
1998.69	204.298
2000	201.263

File: Al - 8micron - B3_1.txt
300	365.944
306.533	386.228
313.067	386.502
319.6	403.391
326.134	390.778
332.667	381.772
339.201	391.227
345.734	368.364
352.267	372.931
358.801	381.867
365.334	380.808
371.868	356.607
378.401	375
384.935	378.759
391.468	361.769
398.002	369.297
404.535	379.753
411.068	363.972
417.602	361.616
424.135	368.092
430.669	356.986
437.202	355.5
443.736	354.659
450.269	347.558
456.802	353.047
463.336	339.14
469.869	338.876
476.403	330.821
482.936	317.983
489.47	317.055
496.003	310.293
502.536	302.041
509.07	296.834
515.603	303.293
522.137	310.271
528.67	315.968
535.204	302.337
541.737	295.472
548.271	298.475
554.804	284.476
561.337	316.974
567.871	304.75
574.404	322.245
580.938	310.992
587.471	309.156
594.005	309.122
600.538	304.493
607.071	311.464
613.605	321.656
620.138	317.771
626.672	333.219
633.205	333.357
639.739	343.731
646.272	325.203
652.806	333.267
659.339	336.298
665.872	344.763
672.406	343.769
678.939	342.271
685.473	333.95
692.006	348.898
698.54	348.3
705.073	358.431
711.606	355.481
718.14	359.36
724.673	366.051
731.207	361.787
737.74	371.965
744.274	378.462
750.807	394.745
757.341	379.607
763.874	387.877
770.407	373.369
776.941	413.283
783.474	398.842
790.008	402.293
796.541	411.088
803.075	422.628
809.608	409.092
816.141	424.416
822.675	432.347
829.208	427.832
835.742	427.02
842.275	442.806
848.809	456.897
855.342	459.127
861.875	452.848
868.409	430.628
874.942	428.859
881.476	426.037
888.009	426.171
894.543	414.333
901.076	415.102
907.61	416.647
914.143	416.25
920.676	391.993
927.21	419.164
933.743	401.768
940.277	424.163
946.81	406.39
953.344	420.383
959.877	425.983
966.41	430.853
972.944	435.441
979.477	444.346
986.011	445.979
992.544	448.735
999.078	468.539
1005.61	472.745
1012.14	497.841
1018.68	506.88
1025.21	511.319
1031.74	564.067
1038.28	561.158
1044.81	585.335
1051.35	600.266
1057.88	613.166
1064.41	617.368
1070.95	642.672
1077.48	656.574
1084.01	682.453
1090.55	685.741
1097.08	713.378
1103.61	731.105
1110.15	754.758
1116.68	777.438
1123.21	803.056
1129.75	811.072
1136.28	843.342
1142.81	881.31
1149.35	908.847
1155.88	938.79
1162.41	954.025
1168.95	993.84
1175.48	1001.37
1182.01	1026.27
1188.55	1065.06
1195.08	1101.88
1201.61	1072.77
1208.15	1145.45
1214.68	1174.81
1221.21	1214.09
1227.75	1241.99
1234.28	1311.99
1240.81	1340.3
1247.35	1404.75
1253.88	1466.16
1260.42	1531.58
1266.95	1620.77
1273.48	1726.71
1280.02	1819.93
1286.55	1921.47
1293.08	2068.79
1299.62	2225.65
1306.15	2401.81
1312.68	2605.27
1319.22	2873.75
1325.75	3066.84
1332.28	3316.9
1338.82	3476.88
1345.35	3550.8
1351.88	3583
1358.42	3484.67
1364.95	3326.79
1371.48	3145.43
1378.02	2981.63
1384.55	2767.68
1391.08	2590.99
1397.62	2433.8
1404.15	2304.47
1410.68	2199.34
1417.22	2079.39
1423.75	2013.26
1430.28	1981.36
1436.82	1934.97
1443.35	1879.89
1449.88	1873.58
1456.42	1841.36
1462.95	1840.94
1469.48	1816.78
1476.02	1834.74
1482.55	1819.01
1489.09	1829.85
1495.62	1826.4
1502.15	1858.17
1508.69	1857.64
1515.22	1892.02
1521.75	1910.46
1528.29	1968.74
1534.82	2043.4
1541.35	2126.87
1547.89	2289.77
1554.42	2374.71
1560.95	2594.65
1567.49	2750.35
1574.02	2996.39
1580.55	3237.07
1587.09	3414.17
1593.62	3493.45
1600.15	3553.32
1606.69	3464.61
1613.22	3255.88
1619.75	2971.38
1626.29	2619.54
1632.82	2261.85
1639.35	1893.91
1645.89	1646.56
1652.42	1393.34
1658.95	1184.37
1665.49	1001.96
1672.02	840.331
1678.55	762.538
1685.09	677.349
1691.62	619.004
1698.16	552.025
1704.69	521.626
1711.22	491.04
1717.76	463.379
1724.29	433.874
1730.82	425.597
1737.36	409.593
1743.89	405.11
1750.42	397.783
1756.96	378.196
1763.49	391.059
1770.02	373.203
1776.56	364.396
1783.09	347.548
1789.62	357.995
1796.16	360.649
1802.69	373.961
1809.22	365.362
1815.76	350.044
1822.29	353.968
1828.82	348.998
1835.36	342.294
1841.89	348.683
1848.42	361.557
1854.96	361.855
1861.49	342.16
1868.02	344.648
1874.56	345.463
1881.09	348.422
1887.62	338.467
1894.16	335.106
1900.69	343.193
1907.23	355.585
1913.76	350.427
1920.29	344.145
1926.83	347.519
1933.36	335.612
1939.89	341.279
1946.43	352.738
1952.96	353.292
1959.49	353.828
1966.03	347.581
1972.56	351.439
1979.09	334.076
1985.63	344.319
1992.16	338.583
1998.69	348.334
2000	339.639

File: Al - B31 -  bottom.txt
300	-14.9451
306.533	14.3915
313.067	34.4909
319.6	25.6999
326.134	5.88008
332.667	14.547
339.201	14.8505
345.734	17.6435
352.267	13.4387
358.801	10.4207
365.334	3.5486
371.868	19.5641
378.401	-2.56397
384.935	1.77558
391.468	-9.31994
398.002	-21.5027
404.535	-0.421405
411.068	-8.73225
417.602	-10.3782
424.135	-20.4458
430.669	-2.0355
437.202	-18.4105
443.736	-9.69462
450.269	-15.3277
456.802	-16.1795
463.336	-28.2439
469.869	-31.5593
476.403	-29.1065
482.936	-30.1355
489.47	-39.194
496.003	-35.1644
502.536	-62.3908
509.07	-71.9732
515.603	-57.7059
522.137	-63.5818
528.67	-74.2194
535.204	-65.5881
541.737	-66.3621
548.271	-60.2254
554.804	-60.3087
561.337	-75.0706
567.871	-53.482
574.404	-43.2981
580.938	-52.1274
587.471	-61.25
594.005	-35.5538
600.538	-43.4208
607.071	-33.3251
613.605	-44.4267
620.138	-32.0207
626.672	-35.0807
633.205	-30.8936
639.739	-32.4109
646.272	-25.672
652.806	-16.3072
659.339	-8.50436
665.872	-22.8497
672.406	-7.15381
678.939	-10.6508
685.473	-1.75
692.006	-5.7333
698.54	-28.4562
705.073	-14.1851
711.606	-11.7455
718.14	-2.68316
724.673	-0.327563
731.207	8.3822
737.74	10.135
744.274	12.5146
750.807	27.0902
757.341	36.9642
763.874	37.5284
770.407	33.4269
776.941	42.92
783.474	46.7031
790.008	51.963
796.541	41.9669
803.075	50.0905
809.608	79.2827
816.141	60.233
822.675	71.1456
829.208	80.3543
835.742	94.9491
842.275	100.577
848.809	88.2228
855.342	87.8357
861.875	95.0731
868.409	85.7303
874.942	69.5454
881.476	65.1836
888.009	69.623
894.543	67.4017
901.076	59.5
907.61	54.5418
914.143	59.4725
920.676	58.9092
927.21	51.1237
933.743	43.0047
940.277	39.3826
946.81	63.7074
953.344	54.06
959.877	54.2971
966.41	78.1156
972.944	61.4854
979.477	81.852
986.011	85.7151
992.544	96.6031
999.078	97.1997
1005.61	124.285
1012.14	142.411
1018.68	156.698
1025.21	179.359
1031.74	197.679
1038.28	199.576
1044.81	206.042
1051.35	251.441
1057.88	249.626
1064.41	254.531
1070.95	285.505
1077.48	317.507
1084.01	302.121
1090.55	354.999
1097.08	364.078
1103.61	385.3
1110.15	406.073
1116.68	450.221
1123.21	476.851
1129.75	490.418
1136.28	550.381
1142.81	600.402
1149.35	649.873
1155.88	717.745
1162.41	764.08
1168.95	785.005
1175.48	836.785
1182.01	860.021
1188.55	886.165
1195.08	880.169
1201.61	901.598
1208.15	951.52
1214.68	979.817
1221.21	997.562
1227.75	1058.53
1234.28	1133.99
1240.81	1172.73
1247.35	1223.53
1253.88	1310.54
1260.42	1389.14
1266.95	1469.47
1273.48	1575.15
1280.02	1701.38
1286.55	1838.76
1293.08	1987.28
1299.62	2124.65
1306.15	2333.27
1312.68	2523.32
1319.22	2701.71
1325.75	2871.34
1332.28	2987.98
1338.82	3106.73
1345.35	3109.13
1351.88	3114.07
1358.42	3071.5
1364.95	2968.04
1371.48	2829.52
1378.02	2715.08
1384.55	2541.17
1391.08	2388.82
1397.62	2254.98
1404.15	2108.32
1410.68	1999.99
1417.22	1899.65
1423.75	1805.9
1430.28	1773.06
1436.82	1725.16
1443.35	1688.87
1449.88	1652.62
1456.42	1625.56
1462.95	1598.6
1469.48	1575.83
1476.02	1588.3
1482.55	1598.77
1489.09	1593.39
1495.62	1602.49
1502.15	1592.73
1508.69	1602.74
1515.22	1599.36
1521.75	1636.99
1528.29	1672.14
1534.82	1708.36
1541.35	1790.12
1547.89	1835.02
1554.42	1951.46
1560.95	2115.88
1567.49	2270.86
1574.02	2490.31
1580.55	2703.7
1587.09	2973.76
1593.62	3243.07
1600.15	3391.5
1606.69	3457.11
1613.22	3314.41
1619.75	3031.2
1626.29	2589.96
1632.82	2118.77
1639.35	1718.89
1645.89	1421.16
1652.42	1186.45
1658.95	978.121
1665.49	781.511
1672.02	640.091
1678.55	508.55
1685.09	411.383
1691.62	332.314
1698.16	289.695
1704.69	229.21
1711.22	216.77
1717.76	187.525
1724.29	156.127
1730.82	147.402
1737.36	129.336
1743.89	119.424
1750.42	118.23
1756.96	101.785
1763.49	105.294
1770.02	88.0064
1776.56	90.6271
1783.09	86.4967
1789.62	75.2826
1796.16	75.0248
1802.69	74.0017
1809.22	65.0208
1815.76	80.8844
1822.29	66.6309
1828.82	59.2711
1835.36	64.0369
1841.89	72.768
1848.42	73.8347
1854.96	72.0447
1861.49	66.0986
1868.02	72.5003
1874.56	81.4975
1881.09	75.6954
1887.62	79.6103
1894.16	74.7415
1900.69	82.6277
1907.23	76.3881
1913.76	72.7895
1920.29	68.8614
1926.83	73.9565
1933.36	87.4967
1939.89	78.7403
1946.43	73.0505
1952.96	70.2416
1959.49	81.0636
1966.03	74.6208
1972.56	77.432
1979.09	86.5852
1985.63	77.3609
1992.16	91.4835
1998.69	81.7109
2000	87.7412