Folder: Graphs/Example Data/Raman/CNT - TIM/Raytheon/Al foil/2011/03-21-11 (part 2)

File: Al - B31 - top_1.txt
300	-149.417
306.533	-136.576
313.067	-112.465
319.6	-113.442
326.134	-117.056
332.667	-134.272
339.201	-120.3
345.734	-120.556
352.267	-127.676
358.801	-132.651
365.334	-139.622
371.868	-136.945
378.401	-126.607
384.935	-145.619
391.468	-128.743
398.002	-132.31
404.535	-126.646
411.068	-147.032
417.602	-134.622
424.135	-151.291
430.669	-139.829
437.202	-139.62
443.736	-146.665
450.269	-139.272
456.802	-148.203
463.336	-143.871
469.869	-136.09
476.403	-144.788
482.936	-153.163
489.47	-167.188
496.003	-170.306
502.536	-176.268
509.07	-172.905
515.603	-180.456
522.137	-176.46
528.67	-181.264
535.204	-180.647
541.737	-193.497
548.271	-189.583
554.804	-180.841
561.337	-179.711
567.871	-166.779
574.404	-177.545
580.938	-160.07
587.471	-169.836
594.005	-162.181
600.538	-162.314
607.071	-154.421
613.605	-155.237
620.138	-148.218
626.672	-146.871
633.205	-146.623
639.739	-156.103
646.272	-142.953
652.806	-143.85
659.339	-129.614
665.872	-132.094
672.406	-134.808
678.939	-128.703
685.473	-130.45
692.006	-120.927
698.54	-132.318
705.073	-111.887
711.606	-128.452
718.14	-128.878
724.673	-102.991
731.207	-117.83
737.74	-104.876
744.274	-97.2204
750.807	-85.2233
757.341	-87.3929
763.874	-87.2684
770.407	-84.2579
776.941	-80.6063
783.474	-73.9303
790.008	-78.5589
796.541	-58.5674
803.075	-48.6283
809.608	-49.7748
816.141	-44.5365
822.675	-43.8705
829.208	-34.4506
835.742	-30.1712
842.275	-40.5428
848.809	-33.6598
855.342	-24.2544
861.875	-30.0072
868.409	-30.5543
874.942	-37.8188
881.476	-32.8969
888.009	-59.3972
894.543	-55.7221
901.076	-70.0502
907.61	-52.7985
914.143	-65.2008
920.676	-60.7058
927.21	-54.9947
933.743	-71.4958
940.277	-75.3829
946.81	-53.8303
953.344	-51.94
959.877	-49.4217
966.41	-57.4375
972.944	-48.6862
979.477	-46.2807
986.011	-31.595
992.544	-11.9125
999.078	-10.7206
1005.61	-3.58459
1012.14	23.3481
1018.68	31.9083
1025.21	52.6371
1031.74	96.5004
1038.28	91.8074
1044.81	96.8529
1051.35	104.746
1057.88	138.009
1064.41	136.315
1070.95	167.033
1077.48	173.3
1084.01	198.515
1090.55	215.607
1097.08	248.341
1103.61	278.667
1110.15	300.113
1116.68	330.654
1123.21	372.355
1129.75	346.705
1136.28	409.186
1142.81	463.845
1149.35	486.651
1155.88	536.657
1162.41	581.955
1168.95	592.168
1175.48	620.948
1182.01	646.908
1188.55	676.39
1195.08	785.341
1201.61	722.876
1208.15	738.736
1214.68	769.555
1221.21	816.657
1227.75	870.626
1234.28	903.213
1240.81	965.09
1247.35	1030.04
1253.88	1082.43
1260.42	1191.99
1266.95	1259.81
1273.48	1346.49
1280.02	1464.49
1286.55	1593.6
1293.08	1716.43
1299.62	1918.43
1306.15	2089.71
1312.68	2303.59
1319.22	2574.13
1325.75	2777.61
1332.28	3026.78
1338.82	3218.31
1345.35	3366.19
1351.88	3425.28
1358.42	3372.16
1364.95	3242.64
1371.48	3040.46
1378.02	2840.77
1384.55	2629.91
1391.08	2419.11
1397.62	2248.92
1404.15	2092.35
1410.68	1961.66
1417.22	1861.71
1423.75	1785.81
1430.28	1713.15
1436.82	1666.43
1443.35	1630.54
1449.88	1563.94
1456.42	1532.22
1462.95	1512.94
1469.48	1514.58
1476.02	1521.41
1482.55	1486.96
1489.09	1479.96
1495.62	1513.24
1502.15	1509.14
1508.69	1501.61
1515.22	1525.17
1521.75	1555.16
1528.29	1584.01
1534.82	1630.16
1541.35	1688
1547.89	1789.68
1554.42	1918.07
1560.95	2100.74
1567.49	2264.84
1574.02	2503.23
1580.55	2706.51
1587.09	2994.55
1593.62	3254.22
1600.15	3403.72
1606.69	3442.43
1613.22	3377.25
1619.75	3113.97
1626.29	2734.88
1632.82	2321.92
1639.35	1916.37
1645.89	1550.69
1652.42	1223.14
1658.95	1002.43
1665.49	763.803
1672.02	618.031
1678.55	460.007
1685.09	334.258
1691.62	255.904
1698.16	184.011
1704.69	133.869
1711.22	116.068
1717.76	72.7514
1724.29	78.9916
1730.82	52.4538
1737.36	25.4772
1743.89	-0.425285
1750.42	-8.00258
1756.96	-19.0903
1763.49	-20.4454
1770.02	-23.7728
1776.56	-29.1552
1783.09	-20.5011
1789.62	-25.7895
1796.16	-34.1096
1802.69	-25.9419
1809.22	-23.7081
1815.76	-27.9634
1822.29	-38.7389
1828.82	-31.813
1835.36	-32.9337
1841.89	-39.5878
1848.42	-33.9136
1854.96	-27.2795
1861.49	-21.4223
1868.02	-33.2964
1874.56	-30.8453
1881.09	-24.5896
1887.62	-24.952
1894.16	-26.5918
1900.69	-28.4705
1907.23	-32.8911
1913.76	-26.3217
1920.29	-35.085
1926.83	-32.7131
1933.36	-23.3862
1939.89	-28.7514
1946.43	-27.8575
1952.96	-36.4724
1959.49	-25.965
1966.03	-27.6356
1972.56	-22.7709
1979.09	-12.2439
1985.63	-25.0719
1992.16	-19.2533
1998.69	-16.8054
2000	-13.3294