Folder: Graphs/Example Data/Raman/Kara/12-20-10/Si-Graphene/1 etoh pressed

Note: README.md
# Graphs
A macOS app that manages the organization of data files and graphs them.

Licensed under the MIT licensing terms: https://opensource.org/licenses/MIT

Hildreth wrote the precursor to Graphs, then called GraphBase, during his Ph.D. to help manage the data he was collecting as part of his research on Metal-assisted Chemical Etching of Silicon.  He was becoming overwhelmed by the hundreds of data files he was collecting every week and was inspired by the Papers and iTunes applications on OS X (now macOS) to create an application that managed data.  GraphBase provided an easy template to create a parser, a simple UI to organize data into hiarchical folders, and leveraged the DataGraph framework (http://www.visualdatatools.com/DataGraph/Framework/) for graphing.  DataGraph (http://www.visualdatatools.com/DataGraph/) is an amazing 2D graphing application and you will need to purchase a DataGraph license from Visual Data Tools in order to use Graphs.

Graphs is a rewrite of GraphBase in Swift written by Connor and then re-written again by Hildreth that has been open sourced for use by all.  Please not that you will need a DataGraph license to create the graph templates used by the DataGraph framework underlying Graphs.  Hildreth plans to continue evolving this application.  The next plan improvements are: multithreading for import and parsing using the new Results type in Swift; and begin switching over to SwiftUI for the UI.  Long term, we hope to add support for data analysis and extraction.

# Overview
Graphs is a data management tool that allows you to store your raw data files in a text formate (CSV, tab delimited, etc.) and then have those files parsed and graphed when selected.  Graphs uses the DataGraph fromework 

To use Graphs, first you create an example graph, what we call a Graph Template, in DataGraph.  Format the graph the way you want it to look and make sure that the Data Columns are in the same order as the columns in your data.  Next, you  add your "Graph Template" to Graphs using either the Graph Template Inspector on the right side of Graphs using using the "+" sign on the bottom left of the application.  You can also drag-and-drop the file onto a folder in the Source List.  Once you add a Graph Template, you can assign it to be the default Graph Template for a folder and any sub-folders using the Folder Inspector.

The second step is to make a Paser using the Parser Inspector.  It might be helpful to have an example file already in Graphs (see Step 3) because you can use the Text Inspector to see what lines your Experimental Details, Header, and Data start at.  Add a Parse Template using the + sign in the Parse Inspector's table and give the Parse Template a name.  If your data has experimental details at the top, then select the checkbox and set the starting and ending lines for this information.  If your data has a Header, select the Header checkbox, give it starting and ending line numbers, and then select the type of s

File: SG_1.txt
400	127.247
412.576	156.489
425.152	189.8
437.729	211.389
450.305	236.441
462.881	278.316
475.457	331.465
488.034	456.035
500.61	785.005
513.186	965.003
525.762	261.777
538.338	139.116
550.915	107.353
563.491	89.981
576.067	88.8044
588.643	94.581
601.219	96.6692
613.796	91.2235
626.372	94.7348
638.948	94.3058
651.524	94.0745
664.101	91.2164
676.677	80.3079
689.253	80.5116
701.829	77.8417
714.406	77.3163
726.982	84.1729
739.558	79.3121
752.134	89.5168
764.71	87.3647
777.287	98.4057
789.863	94.7305
802.439	93.0022
815.015	105.618
827.591	92.9827
840.168	102.55
852.744	110.464
865.32	114.495
877.896	120.063
890.473	116.526
903.049	131.67
915.625	130.737
928.201	141.849
940.777	127.157
953.354	118.222
965.93	103.765
978.506	88.938
991.082	81.7358
1003.66	70.0881
1016.23	63.2668
1028.81	59.7466
1041.39	60.4415
1053.96	61.4057
1066.54	55.496
1079.12	51.9476
1091.69	45.1662
1104.27	48.6744
1116.84	48.0412
1129.42	48.0188
1142	50.7735
1154.57	48.5406
1167.15	49.5234
1179.73	47.7892
1192.3	51.5889
1204.88	44.7867
1217.45	54.4502
1230.03	54.511
1242.61	58.5576
1255.18	61.1106
1267.76	59.8927
1280.34	65.983
1292.91	61.2634
1305.49	69.5947
1318.06	70.1883
1330.64	75.1956
1343.22	71.4836
1355.79	74.2
1368.37	76.3181
1380.95	69.3732
1393.52	68.6234
1406.1	64.7917
1418.67	57.5853
1431.25	62.8704
1443.83	63.8626
1456.4	64.7696
1468.98	68.9158
1481.55	65.7372
1494.13	76.5162
1506.71	67.6568
1519.28	67.6
1531.86	75.4774
1544.44	71.5298
1557.01	80.0065
1569.59	75.4898
1582.16	85.7429
1594.74	86.4701
1607.32	81.1477
1619.89	73.0069
1632.47	67.4915
1645.05	70.058
1657.62	65.4137
1670.2	69.3237
1682.77	68.5592
1695.35	61.2146
1707.93	69.4326
1720.5	61.8991
1733.08	73.6831
1745.66	68.7149
1758.23	66.4143
1770.81	74.6634
1783.38	71.7542
1795.96	69.6069
1808.54	72.3363
1821.11	71.4109
1833.69	74.0649
1846.27	74.467
1858.84	70.5777
1871.42	79.6429
1883.99	79.6457
1896.57	76.9726
1909.15	77.4777
1921.72	83.7265
1934.3	82.2011
1946.875	81.846
1959.45	85.1982
1972.03	82.5567
1984.6	82.2876
1997.18	87.4337
2009.76	91.8956
2022.33	92.216
2034.91	97.6126
2047.48	94
2060.06	89.6826
2072.64	98.8936
2085.21	96.8886
2097.79	96.2933
2110.37	101.77
2122.94	100.739
2135.52	104.124
2148.09	107.85
2160.67	112.762
2173.25	110.234
2185.82	110.972
2198.4	112.49
2210.98	117.804
2223.55	118.791
2236.13	114.316
2248.7	123.636
2261.28	125.273
2273.86	128.626
2286.43	126.89
2299.01	138.134
2311.59	138.527
2324.16	134.518
2336.74	142.543
2349.31	143.303
2361.89	145.805
2374.47	134.552
2387.04	147.041
2399.62	153.954
2412.2	160.051
2424.77	159.997
2437.35	184.47
2449.92	182.287
2462.5	163.787
2475.08	163.586
2487.65	176.4
2500.23	173.299
2512.8	172.154
2525.38	178.891
2537.96	182.305
2550.53	183.009
2563.11	186.448
2575.69	189.406
2588.26	189.423
2600.84	186.709
2613.41	194.278
2625.99	195.337
2638.57	197.485
2651.14	199.327
2663.72	200.921
2676.3	212.77
2688.87	211.866
2701.45	210.917
2714.02	226.425
2726.6	212.26
2739.18	222.681
2751.75	222.236
2764.33	230.026
2776.91	235.49
2789.48	234.56
2802.06	239.878
2814.63	240.508
2827.21	241.757
2839.79	247.335
2852.36	254.993
2864.94	258.354
2877.52	254.411
2890.09	270.695
2902.67	267.252
2915.24	273.867
2927.82	275.67
2940.4	288.702
2952.97	288.686
2965.55	289.43
2978.125	287.387
2990.7	295.913
3003.28	288.082
3015.85	288.599
3028.43	298.725
3041.01	310.796
3053.58	305.607
3066.16	308.501
3078.73	316.532
3091.31	327.439
3103.89	330.41
3116.46	336.486
3129.04	325.028
3141.62	339.93
3154.19	344.355
3166.77	358.066
3179.34	350.063
3191.92	358.203
3204.5	368.173
3217.07	371.995
3229.65	397.857
3242.23	398.02
3254.8	394.271
3267.38	400.325
3279.95	404.232
3292.53	414.664
3305.11	412.916
3317.68	415.629
3330.26	432.183
3342.84	435.441
3355.41	430.252
3367.99	441.257
3380.56	447.195
3393.14	466.347
3405.72	460.536
3418.29	467.817
3430.87	484.293
3443.45	501.453
3456.02	486.917
3468.6	501.059
3481.17	508.071
3493.75	507.244
3506.33	523.512
3518.9	520.751
3531.48	530.733
3544.05	531.174
3556.63	552.913
3569.21	550.51
3581.78	571.549
3594.36	568.057
3606.94	577.782
3619.51	594.115
3632.09	599.86
3644.66	606.343
3657.24	608.07
3669.82	609.688
3682.39	618.417
3694.97	623.361
3700	631.36