Folder: Graphs/Example Data/Raman/Kara/12-20-10/Si-Graphene/2 etoh dispersed

Note: README.md
# Graphs
A macOS app that manages the organization of data files and graphs them.

Licensed under the MIT licensing terms: https://opensource.org/licenses/MIT

Hildreth wrote the precursor to Graphs, then called GraphBase, during his Ph.D. to help manage the data he was collecting as part of his research on Metal-assisted Chemical Etching of Silicon.  He was becoming overwhelmed by the hundreds of data files he was collecting every week and was inspired by the Papers and iTunes applications on OS X (now macOS) to create an application that managed data.  GraphBase provided an easy template to create a parser, a simple UI to organize data into hiarchical folders, and leveraged the DataGraph framework (http://www.visualdatatools.com/DataGraph/Framework/) for graphing.  DataGraph (http://www.visualdatatools.com/DataGraph/) is an amazing 2D graphing application and you will need to purchase a DataGraph license from Visual Data Tools in order to use Graphs.

Graphs is a rewrite of GraphBase in Swift written by Connor and then re-written again by Hildreth that has been open sourced for use by all.  Please not that you will need a DataGraph license to create the graph templates used by the DataGraph framework underlying Graphs.  Hildreth plans to continue evolving this application.  The next plan improvements are: multithreading for import and parsing using the new Results type in Swift; and begin switching over to SwiftUI for the UI.  Long term, we hope to add support for data analysis and extraction.

# Overview
Graphs is a data management tool that allows you to store your raw data files in a text formate (CSV, tab delimited, etc.) and then have those files parsed and graphed when selected.  Graphs uses the DataGraph fromework 

To use Graphs, first you create an example graph, what we call a Graph Template, in DataGraph.  Format the graph the way you want it to look and make sure that the Data Columns are in the same order as the columns in your data.  Next, you  add your "Graph Template" to Graphs using either the Graph Template Inspector on the right side of Graphs using using the "+" sign on the bottom left of the application.  You can also drag-and-drop the file onto a folder in the Source List.  Once you add a Graph Template, you can assign it to be the default Graph Template for a folder and any sub-folders using the Folder Inspector.

The second step is to make a Paser using the Parser Inspector.  It might be helpful to have an example file already in Graphs (see Step 3) because you can use the Text Inspector to see what lines your Experimental Details, Header, and Data start at.  Add a Parse Template using the + sign in the Parse Inspector's table and give the Parse Template a name.  If your data has experimental details at the top, then select the checkbox and set the starting and ending lines for this information.  If your data has a Header, select the Header checkbox, give it starting and ending line numbers, and then select the type of s

File: SG_3.txt
400	127.555
412.576	161.667
425.152	196.152
437.729	208.067
450.305	225.029
462.881	270.504
475.457	325.073
488.034	469.172
500.61	778.122
513.186	1213.04
525.762	310.644
538.338	139.033
550.915	101.362
563.491	91.0849
576.067	89.1446
588.643	93.2446
601.219	99.9209
613.796	88.6825
626.372	87.2307
638.948	83.5226
651.524	90.5019
664.101	84.0665
676.677	74.5728
689.253	75.0613
701.829	73.5677
714.406	68.969
726.982	71.6335
739.558	74.6433
752.134	80.7897
764.71	83.6723
777.287	89.8697
789.863	88.7187
802.439	90.4193
815.015	97.2253
827.591	88.3051
840.168	95.1864
852.744	97.6732
865.32	101.092
877.896	106.606
890.473	111.322
903.049	127.246
915.625	145.288
928.201	145.631
940.777	131.742
953.354	115.933
965.93	95.7453
978.506	79.3128
991.082	66.5501
1003.66	59.7235
1016.23	58.6321
1028.81	51.3824
1041.39	51.603
1053.96	52.346
1066.54	43.168
1079.12	42.1404
1091.69	42.7064
1104.27	37.8
1116.84	38.2406
1129.42	32.4773
1142	37.8218
1154.57	33.4368
1167.15	33.3224
1179.73	33.6631
1192.3	36.7674
1204.88	35.6928
1217.45	37.1295
1230.03	43.3862
1242.61	42.0011
1255.18	45.2
1267.76	42.6067
1280.34	49.6637
1292.91	52.1923
1305.49	55.3729
1318.06	57.2585
1330.64	58.5153
1343.22	67.089
1355.79	67.5096
1368.37	68.5108
1380.95	63.1429
1393.52	51.6599
1406.1	54.6969
1418.67	49.5264
1431.25	47.7056
1443.83	43.8776
1456.4	48.7595
1468.98	49.7868
1481.55	48.921
1494.13	48.2836
1506.71	48.9374
1519.28	45.4199
1531.86	54.9458
1544.44	50.1492
1557.01	57.7986
1569.59	59.6617
1582.16	68.5529
1594.74	64.6503
1607.32	58.2954
1619.89	50.3937
1632.47	52.5403
1645.05	44.2576
1657.62	41.4833
1670.2	38.6
1682.77	45.8853
1695.35	39.6676
1707.93	37.7565
1720.5	37.0434
1733.08	41.2792
1745.66	44.0836
1758.23	43.9029
1770.81	37.3353
1783.38	45.8587
1795.96	44.1453
1808.54	42.9852
1821.11	47.5757
1833.69	47.5962
1846.27	43.9713
1858.84	43.9308
1871.42	48.9071
1883.99	46.2816
1896.57	49.9178
1909.15	47.8288
1921.72	44.6072
1934.3	53.8367
1946.875	52.0611
1959.45	50.8092
1972.03	53.2741
1984.6	48.8887
1997.18	55.7103
2009.76	53.8004
2022.33	53.9787
2034.91	59.4088
2047.48	54.0214
2060.06	60.747
2072.64	54.5252
2085.21	52.1412
2097.79	58.2924
2110.37	58.02
2122.94	59.0215
2135.52	62.6052
2148.09	65.2954
2160.67	69.8945
2173.25	63.8808
2185.82	67.1936
2198.4	65.0342
2210.98	65.9592
2223.55	71.777
2236.13	72.6676
2248.7	76.2108
2261.28	71.8564
2273.86	66.6161
2286.43	76.0326
2299.01	78.0751
2311.59	79.6637
2324.16	82.0279
2336.74	91.8844
2349.31	77.3211
2361.89	81.6536
2374.47	82.9299
2387.04	84.9303
2399.62	90.7647
2412.2	91.0485
2424.77	101.915
2437.35	112.813
2449.92	115.94
2462.5	107.522
2475.08	103.185
2487.65	104.116
2500.23	105.184
2512.8	108.048
2525.38	108.291
2537.96	107.352
2550.53	111.61
2563.11	109.447
2575.69	110.812
2588.26	119.11
2600.84	117.222
2613.41	122.181
2625.99	118.195
2638.57	114.109
2651.14	119.985
2663.72	124.069
2676.3	128.03
2688.87	135.769
2701.45	128.187
2714.02	138.283
2726.6	143.329
2739.18	137.408
2751.75	141.151
2764.33	142.954
2776.91	149.524
2789.48	146.585
2802.06	151.236
2814.63	148.46
2827.21	146.868
2839.79	152.764
2852.36	164.517
2864.94	160.357
2877.52	164.307
2890.09	167.022
2902.67	175.186
2915.24	175.989
2927.82	179.964
2940.4	186.994
2952.97	190.779
2965.55	191.777
2978.125	189.882
2990.7	185.522
3003.28	191.473
3015.85	194.796
3028.43	196.617
3041.01	201.884
3053.58	203.748
3066.16	209.304
3078.73	209.29
3091.31	208.825
3103.89	213.737
3116.46	219.367
3129.04	241.121
3141.62	222.237
3154.19	228.156
3166.77	239.848
3179.34	242.096
3191.92	238.636
3204.5	243.917
3217.07	243.335
3229.65	257.03
3242.23	249.314
3254.8	261.847
3267.38	251.352
3279.95	278.901
3292.53	274.172
3305.11	283.703
3317.68	289.992
3330.26	296.767
3342.84	291.293
3355.41	295.545
3367.99	301.522
3380.56	302.163
3393.14	316.931
3405.72	308.98
3418.29	318.005
3430.87	335.616
3443.45	324.937
3456.02	331.636
3468.6	336.808
3481.17	346.852
3493.75	363.467
3506.33	360.883
3518.9	356.281
3531.48	375.861
3544.05	372.792
3556.63	374.608
3569.21	374.052
3581.78	388.918
3594.36	385.324
3606.94	400.361
3619.51	394.33
3632.09	421.625
3644.66	415.537
3657.24	409.528
3669.82	428.84
3682.39	427.577
3694.97	437.439
3700	444.802

File: SG_4.txt
400	112.924
412.576	120.453
425.152	129.243
437.729	141.171
450.305	128.423
462.881	98.5288
475.457	94.2327
488.034	124.712
500.61	145.682
513.186	305.281
525.762	4454.76
538.338	2125.96
550.915	387.879
563.491	224.173
576.067	164.585
588.643	138.087
601.219	133.445
613.796	131.494
626.372	164.646
638.948	139.312
651.524	134.651
664.101	129.65
676.677	129.504
689.253	133.668
701.829	121.14
714.406	106.384
726.982	96.9443
739.558	117.959
752.134	108.659
764.71	113.717
777.287	110.985
789.863	119.634
802.439	130.938
815.015	146.112
827.591	145.052
840.168	140.445
852.744	146.178
865.32	134.754
877.896	136.001
890.473	126.194
903.049	118.137
915.625	122.195
928.201	124.156
940.777	220.392
953.354	373.728
965.93	371.218
978.506	367.977
991.082	392.635
1003.66	237.772
1016.23	154.221
1028.81	126.199
1041.39	89.1585
1053.96	69.6326
1066.54	60.8892
1079.12	51.3411
1091.69	45.8081
1104.27	38.1097
1116.84	39.5599
1129.42	41.6167
1142	33.9988
1154.57	35.9409
1167.15	31.2925
1179.73	32.2108
1192.3	27.2
1204.88	28.9867
1217.45	28.2705
1230.03	26.5238
1242.61	28.6127
1255.18	28.2563
1267.76	34.0245
1280.34	26.7318
1292.91	27.7275
1305.49	28.8324
1318.06	30.0351
1330.64	29.6222
1343.22	29.4755
1355.79	28.7822
1368.37	28.8868
1380.95	31.0958
1393.52	29.264
1406.1	26.8824
1418.67	29.1292
1431.25	31.7291
1443.83	24.872
1456.4	35.4196
1468.98	33.5525
1481.55	28.4039
1494.13	28.6545
1506.71	28.4282
1519.28	25.5205
1531.86	24.0336
1544.44	23.9929
1557.01	25.4319
1569.59	28.5449
1582.16	24.6866
1594.74	25.7539
1607.32	24.1649
1619.89	26.4
1632.47	24.0119
1645.05	26.2564
1657.62	21.7659
1670.2	28.1487
1682.77	22.8015
1695.35	25.8484
1707.93	23.2866
1720.5	18.4651
1733.08	28.1465
1745.66	22.6724
1758.23	19.0743
1770.81	21.4142
1783.38	24.9125
1795.96	22.3453
1808.54	25.2842
1821.11	22.1707
1833.69	16.1298
1846.27	20.2651
1858.84	23.431
1871.42	18.6785
1883.99	20.009
1896.57	21.8274
1909.15	24.2547
1921.72	22.0988
1934.3	25.5697
1946.875	24.954
1959.45	21.6931
1972.03	22.7587
1984.6	22.0845
1997.18	20.5579
2009.76	23.1369
2022.33	22.2266
2034.91	23.1211
2047.48	22.2641
2060.06	24.9294
2072.64	22.9079
2085.21	19.7985
2097.79	21.558
2110.37	23.5775
2122.94	23.2936
2135.52	23.988
2148.09	25.1413
2160.67	23.8255
2173.25	25.0583
2185.82	23.3954
2198.4	27.3156
2210.98	21.2387
2223.55	27.1432
2236.13	26.1271
2248.7	25.782
2261.28	29.4332
2273.86	27.4732
2286.43	26.0096
2299.01	32.561
2311.59	27.4286
2324.16	26.2897
2336.74	77.3729
2349.31	27.1081
2361.89	23.9758
2374.47	29.6078
2387.04	31.8275
2399.62	32.4361
2412.2	33.4734
2424.77	34.1144
2437.35	42.1293
2449.92	39.2833
2462.5	35.8556
2475.08	38.6387
2487.65	33.6731
2500.23	34.8611
2512.8	34.3716
2525.38	34.9645
2537.96	31.5657
2550.53	32.3585
2563.11	37.1467
2575.69	35.8132
2588.26	36.9362
2600.84	35.5924
2613.41	36.3877
2625.99	34.0488
2638.57	33.1862
2651.14	36.5675
2663.72	37.4801
2676.3	35.4814
2688.87	38.0791
2701.45	37.9557
2714.02	40.0947
2726.6	38.8325
2739.18	39.0859
2751.75	36.1987
2764.33	42.9298
2776.91	39.2535
2789.48	37.6585
2802.06	42
2814.63	42.6797
2827.21	36.273
2839.79	44.413
2852.36	41.8894
2864.94	41.9207
2877.52	40.7988
2890.09	47.8483
2902.67	43.8646
2915.24	42.6941
2927.82	40.5265
2940.4	48.18
2952.97	44.1551
2965.55	44.9723
2978.125	44.7344
2990.7	45.9012
3003.28	42.7865
3015.85	43.949
3028.43	47.1738
3041.01	43.5582
3053.58	41.8875
3066.16	44.0838
3078.73	48.9998
3091.31	47.6664
3103.89	46.798
3116.46	47.4967
3129.04	44.0812
3141.62	54.9638
3154.19	49.9369
3166.77	47.8702
3179.34	47.6048
3191.92	48.3318
3204.5	51.184
3217.07	51.7205
3229.65	50.4411
3242.23	53.3549
3254.8	50.6509
3267.38	50.0056
3279.95	53.5695
3292.53	51.6983
3305.11	49.4629
3317.68	56.9323
3330.26	57.5233
3342.84	58.0401
3355.41	61.2765
3367.99	53.3899
3380.56	55.8054
3393.14	57.8606
3405.72	55.8915
3418.29	58.534
3430.87	49.7301
3443.45	54.723
3456.02	56.1987
3468.6	52.1999
3481.17	57.523
3493.75	57.4542
3506.33	55.075
3518.9	55.5331
3531.48	59.989
3544.05	52.9574
3556.63	59.9166
3569.21	54.9741
3581.78	56.133
3594.36	57.884
3606.94	62.6045
3619.51	61.1265
3632.09	59.0473
3644.66	56.6438
3657.24	56.6165
3669.82	67.6343
3682.39	61.7483
3694.97	58.9713
3700	58.3505