Folder: Graphs/Example Data/Raman/Kara/12-20-10/Si-Graphene/4bulk

Note: README.md
# Graphs
A macOS app that manages the organization of data files and graphs them.

Licensed under the MIT licensing terms: https://opensource.org/licenses/MIT

Hildreth wrote the precursor to Graphs, then called GraphBase, during his Ph.D. to help manage the data he was collecting as part of his research on Metal-assisted Chemical Etching of Silicon.  He was becoming overwhelmed by the hundreds of data files he was collecting every week and was inspired by the Papers and iTunes applications on OS X (now macOS) to create an application that managed data.  GraphBase provided an easy template to create a parser, a simple UI to organize data into hiarchical folders, and leveraged the DataGraph framework (http://www.visualdatatools.com/DataGraph/Framework/) for graphing.  DataGraph (http://www.visualdatatools.com/DataGraph/) is an amazing 2D graphing application and you will need to purchase a DataGraph license from Visual Data Tools in order to use Graphs.

Graphs is a rewrite of GraphBase in Swift written by Connor and then re-written again by Hildreth that has been open sourced for use by all.  Please not that you will need a DataGraph license to create the graph templates used by the DataGraph framework underlying Graphs.  Hildreth plans to continue evolving this application.  The next plan improvements are: multithreading for import and parsing using the new Results type in Swift; and begin switching over to SwiftUI for the UI.  Long term, we hope to add support for data analysis and extraction.

# Overview
Graphs is a data management tool that allows you to store your raw data files in a text formate (CSV, tab delimited, etc.) and then have those files parsed and graphed when selected.  Graphs uses the DataGraph fromework 

To use Graphs, first you create an example graph, what we call a Graph Template, in DataGraph.  Format the graph the way you want it to look and make sure that the Data Columns are in the same order as the columns in your data.  Next, you  add your "Graph Template" to Graphs using either the Graph Template Inspector on the right side of Graphs using using the "+" sign on the bottom left of the application.  You can also drag-and-drop the file onto a folder in the Source List.  Once you add a Graph Template, you can assign it to be the default Graph Template for a folder and any sub-folders using the Folder Inspector.

The second step is to make a Paser using the Parser Inspector.  It might be helpful to have an example file already in Graphs (see Step 3) because you can use the Text Inspector to see what lines your Experimental Details, Header, and Data start at.  Add a Parse Template using the + sign in the Parse Inspector's table and give the Parse Template a name.  If your data has experimental details at the top, then select the checkbox and set the starting and ending lines for this information.  If your data has a Header, select the Header checkbox, give it starting and ending line numbers, and then select the type of s

File: SGbulk_1.txt
400	219.645
412.576	249.875
425.152	310.382
437.729	335.885
450.305	361.737
462.881	416.69
475.457	522.507
488.034	734.636
500.61	1265.55
513.186	1396.14
525.762	440.049
538.338	243.666
550.915	185.446
563.491	169.346
576.067	172.308
588.643	174.936
601.219	180.493
613.796	167.906
626.372	167.886
638.948	167.194
651.524	165.638
664.101	158.05
676.677	158.384
689.253	152.418
701.829	148.842
714.406	139.91
726.982	146.108
739.558	156.605
752.134	167.945
764.71	165.147
777.287	171.821
789.863	173.292
802.439	179.328
815.015	179.818
827.591	182.518
840.168	184.245
852.744	185.115
865.32	199.046
877.896	192.655
890.473	217.697
903.049	235.41
915.625	261.72
928.201	249.669
940.777	250.454
953.354	229.015
965.93	200.639
978.506	172.561
991.082	156.354
1003.66	143.81
1016.23	141.959
1028.81	136.401
1041.39	145.945
1053.96	139.353
1066.54	148.579
1079.12	136.658
1091.69	132.766
1104.27	135.337
1116.84	127.639
1129.42	127.638
1142	133.952
1154.57	127.118
1167.15	133.851
1179.73	126.141
1192.3	133.052
1204.88	128.606
1217.45	136.935
1230.03	134.352
1242.61	153.324
1255.18	144.435
1267.76	147.965
1280.34	138.066
1292.91	163.92
1305.49	151.362
1318.06	154.822
1330.64	163.165
1343.22	183.249
1355.79	184.165
1368.37	175.877
1380.95	176.375
1393.52	172.617
1406.1	169.47
1418.67	157.5
1431.25	160.506
1443.83	168.977
1456.4	170.63
1468.98	179.147
1481.55	174.062
1494.13	178.506
1506.71	179.323
1519.28	176.511
1531.86	180.153
1544.44	183.603
1557.01	196.991
1569.59	193.366
1582.16	199.477
1594.74	193.78
1607.32	201.07
1619.89	200.544
1632.47	202.893
1645.05	188
1657.62	186.969
1670.2	182.428
1682.77	194.423
1695.35	197.344
1707.93	184.897
1720.5	193.482
1733.08	202.39
1745.66	202.685
1758.23	196.003
1770.81	210.885
1783.38	214.64
1795.96	200.26
1808.54	210.651
1821.11	218.336
1833.69	219.339
1846.27	219.806
1858.84	224.654
1871.42	231.189
1883.99	233.036
1896.57	225.807
1909.15	221.547
1921.72	234.736
1934.3	238.673
1946.875	239.384
1959.45	237.593
1972.03	245.214
1984.6	251.255
1997.18	228.258
2009.76	251.557
2022.33	272.55
2034.91	259.637
2047.48	273.514
2060.06	271.409
2072.64	276.928
2085.21	270.589
2097.79	273.824
2110.37	278.247
2122.94	300.715
2135.52	295.045
2148.09	297.485
2160.67	306.247
2173.25	305.581
2185.82	312.031
2198.4	328.201
2210.98	305.725
2223.55	312.259
2236.13	319.111
2248.7	324.357
2261.28	334.401
2273.86	343.425
2286.43	351.897
2299.01	357.483
2311.59	372.882
2324.16	366.292
2336.74	380.337
2349.31	373.352
2361.89	372.759
2374.47	378.125
2387.04	389.631
2399.62	396.25
2412.2	399.521
2424.77	419.913
2437.35	430.5
2449.92	431.655
2462.5	440.54
2475.08	443.921
2487.65	641.524
2500.23	449.838
2512.8	451.068
2525.38	467.936
2537.96	468.406
2550.53	463.814
2563.11	486.369
2575.69	488.786
2588.26	495.401
2600.84	496.744
2613.41	500.977
2625.99	503.583
2638.57	515.76
2651.14	525.568
2663.72	537.672
2676.3	547.775
2688.87	552.851
2701.45	564.758
2714.02	567.307
2726.6	577.956
2739.18	593.11
2751.75	586.188
2764.33	591.556
2776.91	605.753
2789.48	606.721
2802.06	620.692
2814.63	618.026
2827.21	638.968
2839.79	638.845
2852.36	657.711
2864.94	659.512
2877.52	669.686
2890.09	676.439
2902.67	696.142
2915.24	715.896
2927.82	721.056
2940.4	721.291
2952.97	744.064
2965.55	741.055
2978.125	751.961
2990.7	764.377
3003.28	758.901
3015.85	768.081
3028.43	784.947
3041.01	793.817
3053.58	826.798
3066.16	838.23
3078.73	852.736
3091.31	862.692
3103.89	875.148
3116.46	874.254
3129.04	889.211
3141.62	904.343
3154.19	908.799
3166.77	916.297
3179.34	946.728
3191.92	951.922
3204.5	977.063
3217.07	985.858
3229.65	1011.55
3242.23	998.545
3254.8	1029.8
3267.38	1053.41
3279.95	1067.47
3292.53	1080.26
3305.11	1098.13
3317.68	1101.44
3330.26	1123.42
3342.84	1119.24
3355.41	1137.74
3367.99	1146.19
3380.56	1188.93
3393.14	1190.04
3405.72	1204.3
3418.29	1243.34
3430.87	1235.15
3443.45	1269.19
3456.02	1284.47
3468.6	1298.75
3481.17	1329.76
3493.75	1344.88
3506.33	1344.06
3518.9	1348.81
3531.48	1379.67
3544.05	1395.99
3556.63	1408.9
3569.21	1441.99
3581.78	1471.54
3594.36	1481.24
3606.94	1500.71
3619.51	1528.67
3632.09	1526.54
3644.66	1566.2
3657.24	1589.18
3669.82	1579.3
3682.39	1637.09
3694.97	1651.58
3700	1646.25

File: SGbulk_2.txt
300	331.411
312.649	320.73
325.298	332.077
337.946	351.29
350.595	334.001
363.244	336.326
375.893	308.125
388.542	281.576
401.19	291.905
413.839	301.606
426.488	315.601
439.137	315.664
451.786	337.33
464.435	413.673
477.083	523.663
489.732	805.75
502.381	1487.25
515.03	1394.78
527.679	404.805
540.327	231.389
552.976	169.464
565.625	154.884
578.274	155.237
590.923	171.756
603.571	172.374
616.22	160.521
628.869	152.271
641.518	153.992
654.167	150.381
666.815	146.664
679.464	139.562
692.113	133.648
704.762	131.544
717.411	136.588
730.06	139.487
742.708	139.372
755.357	149.24
768.006	151.931
780.655	152.042
793.304	163.532
805.952	161.108
818.601	167.08
831.25	165.571
843.899	163.311
856.548	167.593
869.196	185.011
881.845	198.04
894.494	207.567
907.143	218.86
919.792	240.617
932.44	235.091
945.089	235.14
957.738	202.481
970.387	168.281
983.036	153.627
995.685	132.333
1008.33	125.857
1020.98	123.421
1033.63	116.389
1046.28	124.359
1058.93	112.67
1071.58	109.666
1084.23	113.551
1096.875	107.901
1109.52	101.602
1122.17	104.233
1134.82	112.389
1147.47	107.143
1160.12	112.005
1172.77	104.101
1185.42	103.51
1198.07	113.48
1210.71	102.469
1223.36	111.861
1236.01	113.501
1248.66	114.203
1261.31	118.727
1273.96	110.275
1286.61	116.54
1299.26	118.413
1311.9	129.984
1324.55	136.226
1337.2	146.307
1349.85	144.517
1362.5	141.171
1375.15	141.506
1387.8	135.242
1400.45	134.117
1413.1	133.988
1425.74	139.827
1438.39	137.951
1451.04	140.887
1463.69	134.931
1476.34	141.093
1488.99	151.374
1501.64	136.629
1514.29	147.217
1526.93	141.887
1539.58	147.191
1552.23	152.978
1564.88	151.672
1577.53	160.708
1590.18	165.388
1602.83	164.2
1615.48	152.941
1628.125	143.929
1640.77	148.202
1653.42	145.367
1666.07	146.842
1678.72	153.034
1691.37	155.869
1704.02	147.95
1716.67	146.925
1729.32	158.34
1741.96	151.602
1754.61	138.871
1767.26	151.751
1779.91	165.109
1792.56	166.471
1805.21	164.111
1817.86	162.468
1830.51	160.868
1843.15	170.329
1855.8	168.515
1868.45	173.733
1881.1	172.252
1893.75	174.932
1906.4	180.973
1919.05	190.058
1931.7	181.003
1944.35	195.069
1956.99	182.848
1969.64	177.899
1982.29	192.389
1994.94	195.526
2007.59	196.675
2020.24	193.109
2032.89	208.997
2045.54	202.16
2058.18	202.934
2070.83	208.371
2083.48	217.493
2096.13	212.521
2108.78	217.858
2121.43	226.83
2134.08	222.962
2146.73	227.658
2159.375	224.171
2172.02	238.767
2184.67	230.928
2197.32	237.505
2209.97	240.858
2222.62	251.112
2235.27	251.937
2247.92	261.892
2260.57	268.403
2273.21	256.216
2285.86	276.708
2298.51	276.75
2311.16	275.155
2323.81	283.357
2336.46	311.602
2349.11	295.327
2361.76	286.835
2374.4	294.745
2387.05	305.356
2399.7	308.813
2412.35	321.118
2425	328.206
2437.65	338.88
2450.3	340.524
2462.95	341.993
2475.6	333.187
2488.24	338.489
2500.89	342.203
2513.54	342.771
2526.19	353.379
2538.84	357.957
2551.49	367.716
2564.14	371.233
2576.79	377.147
2589.43	382.549
2602.08	377.823
2614.73	399.258
2627.38	392.908
2640.03	408.062
2652.68	408.027
2665.33	422.122
2677.98	430.351
2690.625	436.683
2703.27	453.967
2715.92	442.411
2728.57	446.288
2741.22	463.262
2753.87	463.315
2766.52	529.628
2779.17	473.993
2791.82	484.997
2804.46	497.994
2817.11	498.986
2829.76	517.214
2842.41	520.066
2855.06	529.18
2867.71	524.509
2880.36	535.082
2893.01	558.871
2905.65	566.762
2918.3	551.996
2930.95	577.818
2943.6	587.555
2956.25	599.737
2968.9	610.449
2981.55	607.206
2994.2	600.054
3006.85	614.98
3019.49	644.992
3032.14	646.394
3044.79	655.123
3057.44	680.271
3070.09	687.408
3082.74	694.549
3095.39	700.451
3108.04	716.055
3120.68	728.171
3133.33	736.756
3145.98	750.16
3158.63	754.17
3171.28	751.39
3183.93	789.055
3196.58	792.693
3209.23	822.531
3221.875	823.163
3234.52	849.663
3247.17	848.962
3259.82	851.659
3272.47	879.639
3285.12	897.916
3297.77	903.752
3310.42	928.448
3323.07	928.472
3335.71	943.191
3348.36	932.642
3361.01	949.562
3373.66	989.009
3386.31	999.903
3398.96	1002.6
3411.61	1024.32
3424.26	1044.93
3436.9	1049.56
3449.55	1061.2
3462.2	1091.35
3474.85	1104.6
3487.5	1084.79
3500.15	1126.26
3512.8	1147.27
3525.45	1165.51
3538.1	1188.62
3550.74	1182.24
3563.39	1202.63
3576.04	1236.34
3588.69	1280.4
3601.34	1276.05
3613.99	1273.04
3626.64	1327.29
3639.29	1332.2
3651.93	1337.65
3664.58	1364.36
3677.23	1372.43
3689.88	1378.36
3700	1407.2