Folder: Graphs/Example Data/Raman/Kara/12-20-10/Si-Graphene/5bulk

Note: README.md
# Graphs
A macOS app that manages the organization of data files and graphs them.

Licensed under the MIT licensing terms: https://opensource.org/licenses/MIT

Hildreth wrote the precursor to Graphs, then called GraphBase, during his Ph.D. to help manage the data he was collecting as part of his research on Metal-assisted Chemical Etching of Silicon.  He was becoming overwhelmed by the hundreds of data files he was collecting every week and was inspired by the Papers and iTunes applications on OS X (now macOS) to create an application that managed data.  GraphBase provided an easy template to create a parser, a simple UI to organize data into hiarchical folders, and leveraged the DataGraph framework (http://www.visualdatatools.com/DataGraph/Framework/) for graphing.  DataGraph (http://www.visualdatatools.com/DataGraph/) is an amazing 2D graphing application and you will need to purchase a DataGraph license from Visual Data Tools in order to use Graphs.

Graphs is a rewrite of GraphBase in Swift written by Connor and then re-written again by Hildreth that has been open sourced for use by all.  Please not that you will need a DataGraph license to create the graph templates used by the DataGraph framework underlying Graphs.  Hildreth plans to continue evolving this application.  The next plan improvements are: multithreading for import and parsing using the new Results type in Swift; and begin switching over to SwiftUI for the UI.  Long term, we hope to add support for data analysis and extraction.

# Overview
Graphs is a data management tool that allows you to store your raw data files in a text formate (CSV, tab delimited, etc.) and then have those files parsed and graphed when selected.  Graphs uses the DataGraph fromework 

To use Graphs, first you create an example graph, what we call a Graph Template, in DataGraph.  Format the graph the way you want it to look and make sure that the Data Columns are in the same order as the columns in your data.  Next, you  add your "Graph Template" to Graphs using either the Graph Template Inspector on the right side of Graphs using using the "+" sign on the bottom left of the application.  You can also drag-and-drop the file onto a folder in the Source List.  Once you add a Graph Template, you can assign it to be the default Graph Template for a folder and any sub-folders using the Folder Inspector.

The second step is to make a Paser using the Parser Inspector.  It might be helpful to have an example file already in Graphs (see Step 3) because you can use the Text Inspector to see what lines your Experimental Details, Header, and Data start at.  Add a Parse Template using the + sign in the Parse Inspector's table and give the Parse Template a name.  If your data has experimental details at the top, then select the checkbox and set the starting and ending lines for this information.  If your data has a Header, select the Header checkbox, give it starting and ending line numbers, and then select the type of s

File: SGbulk_2.txt
400	378.601
412.576	415.601
425.152	476.786
437.729	496.552
450.305	540.059
462.881	655.911
475.457	835.622
488.034	1238.44
500.61	2290.99
513.186	2314.18
525.762	740.141
538.338	404.949
550.915	304.509
563.491	270.479
576.067	273.289
588.643	281.025
601.219	294.151
613.796	284.119
626.372	280.114
638.948	267.559
651.524	260.997
664.101	264.483
676.677	244.894
689.253	248.667
701.829	239.905
714.406	246.357
726.982	241.979
739.558	250.503
752.134	256.442
764.71	264.625
777.287	263.907
789.863	274.021
802.439	278.858
815.015	282.232
827.591	287.813
840.168	296.755
852.744	303.494
865.32	317.443
877.896	327.212
890.473	352.889
903.049	402.53
915.625	438.842
928.201	433.955
940.777	412.934
953.354	401.71
965.93	341.419
978.506	301.252
991.082	269.249
1003.66	246.972
1016.23	240.722
1028.81	235.327
1041.39	241.807
1053.96	242.66
1066.54	227.301
1079.12	237.691
1091.69	231.871
1104.27	232.141
1116.84	230.12
1129.42	235.792
1142	221.858
1154.57	230.325
1167.15	243.765
1179.73	247.165
1192.3	238.087
1204.88	253.497
1217.45	245.25
1230.03	249.327
1242.61	268.575
1255.18	277.374
1267.76	279.095
1280.34	285.245
1292.91	291.118
1305.49	293.606
1318.06	312.194
1330.64	327.547
1343.22	345.008
1355.79	350.597
1368.37	338.764
1380.95	337.229
1393.52	316.577
1406.1	315.487
1418.67	317.532
1431.25	320.528
1443.83	312.671
1456.4	338.84
1468.98	337.913
1481.55	347.177
1494.13	339.273
1506.71	335.121
1519.28	341.908
1531.86	356.062
1544.44	368.417
1557.01	369.277
1569.59	405.82
1582.16	403.865
1594.74	401.483
1607.32	397.817
1619.89	387.401
1632.47	372.085
1645.05	371.142
1657.62	379.933
1670.2	385.226
1682.77	374.443
1695.35	384.609
1707.93	384.725
1720.5	401.13
1733.08	391.196
1745.66	410.594
1758.23	411.407
1770.81	408.742
1783.38	440.424
1795.96	419.764
1808.54	430.878
1821.11	437.345
1833.69	443.465
1846.27	451.854
1858.84	453.877
1871.42	465.243
1883.99	473.211
1896.57	476.338
1909.15	473.988
1921.72	478.848
1934.3	500.605
1946.875	487.767
1959.45	501.891
1972.03	501.804
1984.6	511.773
1997.18	523.025
2009.76	525.495
2022.33	547.296
2034.91	542.368
2047.48	558.542
2060.06	562.35
2072.64	570.19
2085.21	585.906
2097.79	566.78
2110.37	594.912
2122.94	596.479
2135.52	626.028
2148.09	632.019
2160.67	639.975
2173.25	649.132
2185.82	677.478
2198.4	676.533
2210.98	675.388
2223.55	702.652
2236.13	711.714
2248.7	726.211
2261.28	722.131
2273.86	761.511
2286.43	760.787
2299.01	782.737
2311.59	794.649
2324.16	803.385
2336.74	838.937
2349.31	823.655
2361.89	826.148
2374.47	853.834
2387.04	869.509
2399.62	884.946
2412.2	894.137
2424.77	926.416
2437.35	952.797
2449.92	968.617
2462.5	970.006
2475.08	972.728
2487.65	968.301
2500.23	993.25
2512.8	996.738
2525.38	1028.13
2537.96	1067.02
2550.53	1056.52
2563.11	1090.95
2575.69	1095.73
2588.26	1095.65
2600.84	1118.31
2613.41	1147.04
2625.99	1159.78
2638.57	1175.74
2651.14	1186.59
2663.72	1180.72
2676.3	1218.65
2688.87	1244.94
2701.45	1256.44
2714.02	1271.19
2726.6	1290.19
2739.18	1324.25
2751.75	1330.88
2764.33	1360.74
2776.91	1365.17
2789.48	1382.92
2802.06	1401
2814.63	1418.44
2827.21	1454.1
2839.79	1472.16
2852.36	1491.59
2864.94	1517.28
2877.52	1546.57
2890.09	1565.39
2902.67	1591.21
2915.24	1615.43
2927.82	1612.23
2940.4	1663.2
2952.97	1681.21
2965.55	1687.61
2978.125	1694.67
2990.7	1716.11
3003.28	1747.1
3015.85	1763.37
3028.43	1791.64
3041.01	1823.23
3053.58	1851.64
3066.16	1867.52
3078.73	1919.85
3091.31	1954.05
3103.89	1978
3116.46	2016.4
3129.04	1998.31
3141.62	2021.13
3154.19	2087.37
3166.77	2078.62
3179.34	2115.49
3191.92	2202.21
3204.5	2214.44
3217.07	2264.61
3229.65	2335.13
3242.23	2336.52
3254.8	2362.47
3267.38	2418.9
3279.95	2438.13
3292.53	2482.87
3305.11	2490.54
3317.68	2524.37
3330.26	2591.3
3342.84	2585.87
3355.41	2613.58
3367.99	2671.18
3380.56	2727.21
3393.14	2737.65
3405.72	2801.27
3418.29	2840.45
3430.87	2882.94
3443.45	2923.06
3456.02	2957.56
3468.6	2994.28
3481.17	3074.74
3493.75	3107.91
3506.33	3129.6
3518.9	3196.99
3531.48	3240.66
3544.05	3284.87
3556.63	3330.05
3569.21	3378.42
3581.78	3439.45
3594.36	3524.98
3606.94	3563.87
3619.51	3598.79
3632.09	3611.82
3644.66	3653.22
3657.24	3718.02
3669.82	3788.32
3682.39	3805.14
3694.97	3858.83
3700	3919.67

File: SGbulk_5.txt
300	331.894
312.649	356.79
325.298	377.634
337.946	403.554
350.595	386.631
363.244	380.657
375.893	372.283
388.542	365.685
401.19	361.469
413.839	353.412
426.488	387.192
439.137	412.206
451.786	457.504
464.435	505.73
477.083	602.903
489.732	807.301
502.381	1385.67
515.03	1100.81
527.679	418.256
540.327	277.601
552.976	244.509
565.625	221.832
578.274	217.901
590.923	226.478
603.571	239.903
616.22	234.477
628.869	229.254
641.518	221.449
654.167	217.218
666.815	221.152
679.464	208.5
692.113	220.657
704.762	207.908
717.411	231.798
730.06	231.601
742.708	221.964
755.357	233.552
768.006	236.161
780.655	231.358
793.304	245.71
805.952	241.947
818.601	248.736
831.25	251.534
843.899	255.565
856.548	258.49
869.196	273.008
881.845	277.528
894.494	299.775
907.143	309.682
919.792	316.155
932.44	305.974
945.089	315.222
957.738	274.813
970.387	257.153
983.036	232.2
995.685	234.935
1008.33	218.928
1020.98	223.877
1033.63	221.925
1046.28	229.316
1058.93	214.821
1071.58	221.049
1084.23	227.102
1096.875	218.728
1109.52	212.78
1122.17	230.214
1134.82	217.601
1147.47	219.424
1160.12	231.441
1172.77	236.807
1185.42	223.504
1198.07	242.956
1210.71	245.607
1223.36	236.455
1236.01	244.297
1248.66	260.924
1261.31	257.243
1273.96	261.578
1286.61	258.835
1299.26	279.374
1311.9	278.749
1324.55	287.847
1337.2	306.411
1349.85	312.506
1362.5	313.607
1375.15	315.891
1387.8	294.218
1400.45	299.212
1413.1	300.778
1425.74	312.786
1438.39	315.443
1451.04	318.976
1463.69	324.528
1476.34	319.442
1488.99	322.485
1501.64	329.352
1514.29	325.333
1526.93	329.752
1539.58	326.783
1552.23	338.045
1564.88	354.983
1577.53	361.566
1590.18	367.173
1602.83	375.659
1615.48	359.476
1628.125	365.985
1640.77	366.415
1653.42	369.461
1666.07	358.617
1678.72	369.01
1691.37	370.963
1704.02	388.361
1716.67	370.851
1729.32	392.786
1741.96	383.149
1754.61	382.279
1767.26	398.834
1779.91	415.82
1792.56	420.5
1805.21	409.151
1817.86	418.941
1830.51	427.835
1843.15	432.622
1855.8	433.706
1868.45	445.422
1881.1	458.465
1893.75	468.115
1906.4	454.127
1919.05	457.362
1931.7	467.632
1944.35	468.171
1956.99	478.145
1969.64	492.959
1982.29	491.396
1994.94	498.284
2007.59	508.921
2020.24	525.553
2032.89	531.994
2045.54	543.047
2058.18	535.391
2070.83	530.599
2083.48	553.683
2096.13	558.151
2108.78	570.222
2121.43	579.804
2134.08	586.472
2146.73	601.427
2159.375	601.429
2172.02	608.191
2184.67	616.841
2197.32	633.956
2209.97	633.483
2222.62	635.636
2235.27	654.404
2247.92	652.458
2260.57	674.809
2273.21	700.966
2285.86	695.244
2298.51	707.267
2311.16	716.213
2323.81	736.71
2336.46	753.343
2349.11	736.982
2361.76	776.145
2374.4	775.716
2387.05	783.413
2399.7	812.74
2412.35	816.358
2425	825.207
2437.65	868.024
2450.3	880.236
2462.95	886.887
2475.6	880.423
2488.24	887.013
2500.89	905.119
2513.54	914.708
2526.19	928.688
2538.84	929.47
2551.49	968.611
2564.14	978.912
2576.79	998.407
2589.43	987.823
2602.08	1037.74
2614.73	1025.88
2627.38	1047.91
2640.03	1059.24
2652.68	1074.65
2665.33	1120.85
2677.98	1116.73
2690.625	1141.23
2703.27	1162.16
2715.92	1177.4
2728.57	1210.08
2741.22	1217.05
2753.87	1238.88
2766.52	1234.95
2779.17	1271.89
2791.82	1287.93
2804.46	1290.73
2817.11	1320.58
2829.76	1349.09
2842.41	1356.74
2855.06	1370.64
2867.71	1416.17
2880.36	1451.11
2893.01	1458.73
2905.65	1492.34
2918.3	1551.49
2930.95	1551.04
2943.6	1570.9
2956.25	1601.31
2968.9	1629.54
2981.55	1641.81
2994.2	1656.98
3006.85	1702.6
3019.49	1729.91
3032.14	1770.38
3044.79	1784.82
3057.44	1829.37
3070.09	1841.82
3082.74	1885.36
3095.39	1941.57
3108.04	1916.53
3120.68	1957.54
3133.33	1988.83
3145.98	2004.82
3158.63	2052.6
3171.28	2077.3
3183.93	2101.43
3196.58	2167.86
3209.23	2222.77
3221.875	2250.88
3234.52	2314.79
3247.17	2310.65
3259.82	2358.94
3272.47	2415.52
3285.12	2426.3
3297.77	2486.34
3310.42	2482.81
3323.07	2529.22
3335.71	2525.83
3348.36	2582.69
3361.01	2634.93
3373.66	2677.11
3386.31	2678.36
3398.96	2748.01
3411.61	2789.64
3424.26	2818.14
3436.9	2896.64
3449.55	2949.27
3462.2	2988.81
3474.85	3035.25
3487.5	3058.74
3500.15	3141.2
3512.8	3150.54
3525.45	3186.61
3538.1	3279.52
3550.74	3292.58
3563.39	3359.19
3576.04	3377.32
3588.69	3504.25
3601.34	3528.01
3613.99	3563.37
3626.64	3564.96
3639.29	3629.45
3651.93	3690.64
3664.58	3736.46
3677.23	3764.22
3689.88	3836.07
3700	3865.34