Folder: Graphs/Example Data/Raman/Kara/12-20-10/Si-Graphene/6bulk (part 2)

File: SGbulk_6.txt
300	161.652
312.649	212.856
325.298	203.098
337.946	213.512
350.595	189.07
363.244	182.058
375.893	175.817
388.542	163.966
401.19	155.79
413.839	161.562
426.488	167.664
439.137	174.283
451.786	166.4
464.435	177.634
477.083	221.82
489.732	324.838
502.381	530.806
515.03	1982.33
527.679	4263.53
540.327	427.278
552.976	159.853
565.625	85.996
578.274	61.8955
590.923	54.8469
603.571	62.4743
616.22	78.6274
628.869	69.7251
641.518	61.7096
654.167	60.2699
666.815	64.7807
679.464	55.7535
692.113	47.7259
704.762	39.4221
717.411	33.2626
730.06	34.9567
742.708	39.5943
755.357	41.2613
768.006	43.3693
780.655	45.4698
793.304	46.3138
805.952	61.915
818.601	58.4496
831.25	62.3505
843.899	57.6361
856.548	61.7591
869.196	59.5262
881.845	57.5279
894.494	66.6686
907.143	71.8217
919.792	103.542
932.44	189.758
945.089	249.898
957.738	233.568
970.387	232.814
983.036	193.464
995.685	106.949
1008.33	71.0962
1020.98	42.9559
1033.63	22.7588
1046.28	9.55609
1058.93	5.29391
1071.58	7.72447
1084.23	0.7193
1096.875	2.92527
1109.52	2.40981
1122.17	1.1262
1134.82	-1.38417
1147.47	-2.66805
1160.12	0.724437
1172.77	-3.92123
1185.42	-7.29553
1198.07	-5.78168
1210.71	-3.64596
1223.36	-6.4992
1236.01	-5.70011
1248.66	-1.00438
1261.31	-1.63257
1273.96	0.787081
1286.61	3.90757
1299.26	6.31234
1311.9	6.25115
1324.55	8.74171
1337.2	16.2239
1349.85	17.624
1362.5	19.7752
1375.15	16.1139
1387.8	14.1738
1400.45	12.0706
1413.1	6.2425
1425.74	4.94244
1438.39	0.646222
1451.04	-0.342172
1463.69	2.5265
1476.34	-0.427923
1488.99	-3.10538
1501.64	-5.73314
1514.29	-5.70248
1526.93	-3.64504
1539.58	-4.43949
1552.23	-0.73341
1564.88	3.98722
1577.53	1.86731
1590.18	5.28328
1602.83	7.65277
1615.48	3.9748
1628.125	6.1096
1640.77	-3.20112
1653.42	-5.23792
1666.07	-6.88045
1678.72	-7.9822
1691.37	-12.6567
1704.02	-10.7496
1716.67	-9.35577
1729.32	-13.4352
1741.96	-8.61617
1754.61	-10.9376
1767.26	-10.2878
1779.91	-11.5769
1792.56	-11.9645
1805.21	-12.605
1817.86	-11.4253
1830.51	-7.54729
1843.15	-11.53
1855.8	-10.3155
1868.45	-10.27
1881.1	-13.0451
1893.75	-9.31735
1906.4	-14.8752
1919.05	-9.998
1931.7	-12.7759
1944.35	-9.49438
1956.99	-11.9608
1969.64	-13.0915
1982.29	-15.2439
1994.94	-13.9173
2007.59	-11.025
2020.24	-11.4127
2032.89	-13.856
2045.54	-11.3254
2058.18	-9.58091
2070.83	-15.0925
2083.48	-11.4787
2096.13	-10.7353
2108.78	-12.3304
2121.43	-10.7462
2134.08	-11.3502
2146.73	-9.85131
2159.375	-13.2711
2172.02	-9.83889
2184.67	-12.7379
2197.32	-11.0896
2209.97	-11.1975
2222.62	-12.0409
2235.27	-9.29962
2247.92	-11.6695
2260.57	-10.9944
2273.21	-9.85961
2285.86	-8.85767
2298.51	-9.20264
2311.16	-10.6356
2323.81	-7.86203
2336.46	-2.00393
2349.11	-11.2727
2361.76	-8.56437
2374.4	-6.86212
2387.05	-8.80273
2399.7	-5.3106
2412.35	-5.80319
2425	-3.28138
2437.65	10.8165
2450.3	4.15395
2462.95	0.228954
2475.6	-1.70371
2488.24	-2.87779
2500.89	-4.20801
2513.54	-1.10825
2526.19	-1.91124
2538.84	-2.05094
2551.49	-0.855458
2564.14	-2.78083
2576.79	-3.81183
2589.43	-3.27766
2602.08	-4.03554
2614.73	-0.362931
2627.38	-4.6004
2640.03	-0.673197
2652.68	-1.6777
2665.33	0.353548
2677.98	-0.700585
2690.625	0.256918
2703.27	2.78267
2715.92	1.58291
2728.57	1.09672
2741.22	1.22047
2753.87	1.36047
2766.52	0.748125
2779.17	0.522203
2791.82	0.871755
2804.46	-0.509416
2817.11	1.27572
2829.76	3.01781
2842.41	-0.63681
2855.06	2.06537
2867.71	1.99105
2880.36	0.824288
2893.01	2.79475
2905.65	3.78725
2918.3	4.74226
2930.95	4.13986
2943.6	3.06073
2956.25	5.81384
2968.9	4.18068
2981.55	1.42482
2994.2	0.648436
3006.85	4.08673
3019.49	2.65343
3032.14	3.71722
3044.79	2.92987
3057.44	1.65363
3070.09	1.40079
3082.74	0.836973
3095.39	3.83913
3108.04	-4.99561
3120.68	-0.599642
3133.33	3.46676
3145.98	0.175805
3158.63	0.703401
3171.28	3.34318
3183.93	1.64421
3196.58	1.22874
3209.23	2.41383
3221.875	1.093
3234.52	1.28804
3247.17	7.12814
3259.82	2.50809
3272.47	1.48104
3285.12	1.97446
3297.77	2.19056
3310.42	4.34138
3323.07	3.13704
3335.71	0.0496445
3348.36	3.05784
3361.01	0.806072
3373.66	1.12401
3386.31	4.33458
3398.96	6.92093
3411.61	2.96379
3424.26	4.48811
3436.9	-0.407898
3449.55	3.77027
3462.2	3.71284
3474.85	5.23756
3487.5	5.70996
3500.15	4.91999
3512.8	4.67215
3525.45	3.03504
3538.1	0.412424
3550.74	7.80609
3563.39	6.73579
3576.04	7.13651
3588.69	7.41714
3601.34	1.87013
3613.99	6.65603
3626.64	6.40073
3639.29	4.44887
3651.93	3.76108
3664.58	3.90468
3677.23	8.57678
3689.88	3.14159
3700	10.1397

File: SGbulk_7.txt
300	166.856
312.649	218.517
325.298	209.684
337.946	199.959
350.595	198.849
363.244	178.851
375.893	166.158
388.542	155.339
401.19	155.262
413.839	167.193
426.488	164.513
439.137	173.171
451.786	163.695
464.435	168.994
477.083	220.74
489.732	319.178
502.381	544.111
515.03	1958.22
527.679	4253.35
540.327	435.855
552.976	166.563
565.625	93.2035
578.274	62.073
590.923	53.4407
603.571	61.5828
616.22	76.9401
628.869	74.175
641.518	59.5507
654.167	64.8024
666.815	58.7934
679.464	58.382
692.113	40.9401
704.762	33.1533
717.411	32.4145
730.06	31.1339
742.708	29.2944
755.357	37.3672
768.006	47.2698
780.655	44.0233
793.304	43.2331
805.952	55.4365
818.601	66.1875
831.25	60.4082
843.899	60.1302
856.548	50.99
869.196	54.1262
881.845	55.4641
894.494	61.4897
907.143	65.3318
919.792	102.233
932.44	196.269
945.089	241.525
957.738	242.601
970.387	228.995
983.036	179.182
995.685	102.818
1008.33	63.9718
1020.98	47.5988
1033.63	19.5381
1046.28	16.0115
1058.93	6.57046
1071.58	8.61118
1084.23	0.164901
1096.875	3.09158
1109.52	0.555585
1122.17	-0.34759
1134.82	-0.913333
1147.47	-4.48642
1160.12	-8.35931
1172.77	-1.17623
1185.42	-3.18567
1198.07	-2.27439
1210.71	-5.38354
1223.36	-0.886174
1236.01	2.63462
1248.66	-1.2
1261.31	-5.73695
1273.96	3.65955
1286.61	-1.37563
1299.26	2.23106
1311.9	7.39069
1324.55	9.54224
1337.2	10.8261
1349.85	17.0834
1362.5	24.6786
1375.15	12.2049
1387.8	14.2651
1400.45	10.2824
1413.1	5.09409
1425.74	4.28781
1438.39	5.47076
1451.04	0.537378
1463.69	0.108123
1476.34	0.28831
1488.99	-5.62508
1501.64	-3.80949
1514.29	-5.25124
1526.93	0.954965
1539.58	-1.46178
1552.23	-3.02204
1564.88	4.83706
1577.53	4.67789
1590.18	3.37458
1602.83	5.2645
1615.48	3.42577
1628.125	2.26221
1640.77	-0.418984
1653.42	-4.36431
1666.07	-8.75752
1678.72	-10.8581
1691.37	-10.8991
1704.02	-12.21
1716.67	-9.68894
1729.32	-12.7291
1741.96	-12.0713
1754.61	-10.5871
1767.26	-11.2488
1779.91	-13.1606
1792.56	-12.6613
1805.21	-12.1185
1817.86	-12.067
1830.51	-11.091
1843.15	-9.68283
1855.8	-11.4845
1868.45	-14.4125
1881.1	-11.4516
1893.75	-11.1293
1906.4	-14.6436
1919.05	-9.288
1931.7	-10.9729
1944.35	-11.2016
1956.99	-10.8794
1969.64	-13.2691
1982.29	-14.3288
1994.94	-13.1471
2007.59	-12.2167
2020.24	-9.93019
2032.89	-12.6552
2045.54	-12.5119
2058.18	-12.9211
2070.83	-13.6513
2083.48	-10.6239
2096.13	-10.7687
2108.78	-11.1669
2121.43	-14.5925
2134.08	-8.75606
2146.73	-10.9795
2159.375	-11.1344
2172.02	-11.5772
2184.67	-11.0592
2197.32	-11.7206
2209.97	-12.5807
2222.62	-12.5839
2235.27	-10.6446
2247.92	-10.3834
2260.57	-10.3285
2273.21	-9.6265
2285.86	-9.24065
2298.51	-8.66142
2311.16	-9.54291
2323.81	-12.0764
2336.46	-2.6247
2349.11	-8.85912
2361.76	-10.8517
2374.4	-7.11896
2387.05	-9.72161
2399.7	-8.84011
2412.35	-3.83267
2425	-2.59175
2437.65	7.40823
2450.3	6.67281
2462.95	-1.8474
2475.6	-3.8263
2488.24	-6.09838
2500.89	-5.57505
2513.54	-5.33351
2526.19	-3.15327
2538.84	-5.84793
2551.49	-1.48994
2564.14	-4.60825
2576.79	-3.95909
2589.43	-3.47476
2602.08	-4.70874
2614.73	-6.29669
2627.38	-4.05468
2640.03	-4.57876
2652.68	-4.15337
2665.33	-4.38381
2677.98	-2.9473
2690.625	-0.463561
2703.27	0.0919435
2715.92	-1.64689
2728.57	-4.20369
2741.22	-1.55062
2753.87	-0.526687
2766.52	-0.818887
2779.17	-0.319626
2791.82	1.21495
2804.46	0.303613
2817.11	-2.08288
2829.76	-0.474092
2842.41	-0.27494
2855.06	-1.21734
2867.71	-2.0232
2880.36	0.767458
2893.01	1.63817
2905.65	-0.180258
2918.3	10.0093
2930.95	1.00119
2943.6	4.78745
2956.25	5.37387
2968.9	2.01392
2981.55	0.0498998
2994.2	-1.64741
3006.85	44.5923
3019.49	-2.38106
3032.14	0.633532
3044.79	-4.21499
3057.44	-3.28224
3070.09	0.939999
3082.74	-0.692685
3095.39	-2.16757
3108.04	-2.39804
3120.68	-0.670385
3133.33	0.132611
3145.98	-1.87338
3158.63	-0.391104
3171.28	-0.230468
3183.93	3.34155
3196.58	-2.45894
3209.23	-0.35308
3221.875	-3.1375
3234.52	0.848189
3247.17	2.04465
3259.82	-1.14565
3272.47	-1.45536
3285.12	-0.258884
3297.77	1.2616
3310.42	1.95482
3323.07	0.808749
3335.71	-1.42831
3348.36	1.37421
3361.01	0.738778
3373.66	1.66747
3386.31	-1.41752
3398.96	-1.27815
3411.61	2.71625
3424.26	3.94801
3436.9	-0.703659
3449.55	-1.27891
3462.2	-0.722431
3474.85	-2.90478
3487.5	2.10871
3500.15	4.3343
3512.8	0.118783
3525.45	2.87809
3538.1	-0.576067
3550.74	0.817766
3563.39	1.04675
3576.04	4.21732
3588.69	3.88241
3601.34	3.42991
3613.99	0.79825
3626.64	4.43316
3639.29	0.479699
3651.93	4.34314
3664.58	5.91793
3677.23	3.53582
3689.88	3.28227
3700	0.966384

File: SGbulk_8.txt
200	39.6788
212.718	34.3336
225.436	36.9412
238.154	43.6271
250.872	51.9998
263.59	48.5876
276.308	59.3814
289.026	55.0324
301.744	60.4181
314.462	57.555
327.18	62.4951
339.898	69.6975
352.616	65.4448
365.334	66.9823
378.052	66.5855
390.77	68.7076
403.488	66.7207
416.206	67.0796
428.924	75.0979
441.642	85.5146
454.36	97.8839
467.078	116.852
479.797	122.508
492.515	112.015
505.233	76.4618
517.951	52.4796
530.669	37.4219
543.387	23.8568
556.105	22.651
568.823	13.2552
581.541	20.1692
594.259	17.2771
606.977	17.4069
619.695	14.1581
632.413	16.7138
645.131	16.7323
657.849	14.604
670.567	15.7464
683.285	17.0485
696.003	15.4528
708.721	14.7291
721.439	17.2947
734.157	15.2061
746.875	21.4271
759.593	24.0727
772.311	13.5344
785.029	14.3781
797.747	20.0554
810.465	15.7752
823.183	22.6998
835.901	17.3348
848.619	18.6633
861.337	23.6039
874.055	24.9145
886.773	21.8179
899.491	21.1466
912.209	16.9187
924.927	19.5772
937.645	15.1138
950.363	12.8398
963.081	11.755
975.799	13.3413
988.517	9.89842
1001.24	8.61929
1013.95	8.53852
1026.67	5
1039.39	5.13058
1052.11	0.149524
1064.83	0.940924
1077.54	0.217036
1090.26	-0.246906
1102.98	-0.470172
1115.7	1.69901
1128.42	-2.1876
1141.13	-1.98022
1153.85	-2.94806
1166.57	-4.35513
1179.29	-2.4798
1192.01	-5.19962
1204.72	-4.09942
1217.44	-5.38472
1230.16	-4.75329
1242.88	0.167901
1255.6	-7.08318
1268.31	0.964702
1281.03	-5.99189
1293.75	-2.35129
1306.47	-4.01956
1319.19	-1.19602
1331.9	0.7187
1344.62	1.68821
1357.34	2.70452
1370.06	-1.40275
1382.78	-0.0370277
1395.49	-1.47222
1408.21	-2.59551
1420.93	-3.06097
1433.65	-2.49792
1446.37	-1.31478
1459.08	-2.78053
1471.8	-3.15492
1484.52	-5.39961
1497.24	-1.60231
1509.96	-3
1522.67	-4.15931
1535.39	0.430188
1548.11	-4.98446
1560.83	-2.11899
1573.55	-3.50865
1586.26	-0.743058
1598.98	0.877998
1611.7	0.6
1624.42	0.138257
1637.14	-0.536354
1649.85	-2.64876
1662.57	-3.77251
1675.29	-5.44736
1688.01	-4.14534
1700.73	-4.11049
1713.44	-2.62899
1726.16	-4.49087
1738.88	-5.98671
1751.6	-4.62549
1764.32	-4.13689
1777.03	-2.49831
1789.75	-4.59753
1802.47	-5.98614
1815.19	-4.53981
1827.91	-5.4
1840.625	-1.1938
1853.34	-4.88871
1866.06	-4.95433
1878.78	-6.03005
1891.5	-4.55001
1904.22	-7.5821
1916.93	-0.131836
1929.65	-4.95142
1942.37	-2.43316
1955.09	-5.51741
1967.81	-6.16358
1980.52	-2.54765
1993.24	-3.99714
2005.96	-3.65011
2018.68	-5.50904
2031.4	-2.43368
2044.11	-6.22741
2056.83	-2.57103
2069.55	-7.16444
2082.27	-4.98597
2094.99	-3.96362
2107.7	-5.55594
2120.42	-3.28021
2133.14	-1.49275
2145.86	-2.87803
2158.58	-1.13998
2171.29	-1.91254
2184.01	-3.18058
2196.73	-5.30072
2209.45	-4.96502
2222.17	-4.64641
2234.88	-3.42605
2247.6	-4.344
2260.32	-4.2252
2273.04	-2.97044
2285.76	-4.30938
2298.47	-4.11608
2311.19	-2.85216
2323.91	-2.53792
2336.63	3.84924
2349.35	-0.752347
2362.06	-1.66181
2374.78	-1.50795
2387.5	-1.77115
2400.22	-0.321998
2412.94	4.00361
2425.65	11.134
2438.37	33.3252
2451.09	25.5461
2463.81	11.1192
2476.53	7.4049
2489.24	5.85035
2501.96	5.86058
2514.68	5.5528
2527.4	3.0602
2540.12	5.17233
2552.83	3.57365
2565.55	3.91147
2578.27	2.90498
2590.99	2.54615
2603.71	1.11401
2616.42	3.02172
2629.14	1.02159
2641.86	3.30523
2654.58	2.01753
2667.3	1.83108
2680.01	4.29609
2692.73	5.10478
2705.45	4.56891
2718.17	4.12658
2730.89	5.16222
2743.6	7.77515
2756.32	5.77867
2769.04	6.0045
2781.76	5.69186
2794.48	5.01468
2807.19	5.23017
2819.91	2.90972
2832.63	4.58281
2845.35	4.40909
2858.07	2.96688
2870.78	5.7578
2883.5	4.80937
2896.22	5.79364
2908.94	4.43534
2921.66	4.98531
2934.375	5.85307
2947.09	6.97131
2959.81	11.7168
2972.53	5.80354
2985.25	3.48644
2997.97	5.95746
3010.68	2.35875
3023.4	3.31159
3036.12	6.52304
3048.84	1.31347
3061.56	2.77053
3074.27	4.61074
3086.99	4.84068
3099.71	4.60487
3112.43	3.6628
3125.15	4.71887
3137.86	3.74295
3150.58	2.23132
3163.3	4.03973
3176.02	5.17384
3188.74	8.41861
3201.45	5.50154
3214.17	6.06729
3226.89	7.55806
3239.61	5.11188
3252.33	4.09414
3265.04	6.43425
3277.76	4.65687
3290.48	7.92714
3303.2	7.48947
3315.92	7.40339
3328.63	5.35675
3341.35	6.08531
3354.07	7.1824
3366.79	8.98333
3379.51	3.99526
3392.22	12.1505
3404.94	3.63322
3417.66	6.55524
3430.38	9.51971
3443.1	8.10064
3455.81	8.32477
3468.53	6.92031
3481.25	9.47825
3493.97	6.4553
3506.69	7.77804
3519.4	6.53603
3532.12	10.2209
3544.84	4.92622
3557.56	8.12039
3570.28	8.54075
3582.99	6.52877
3595.71	7.00515
3608.43	12.9449
3621.15	10.2785
3633.87	7.92132
3646.58	5.01069
3659.3	9.14476
3672.02	12.3299
3684.74	10.5159
3697.46	11.9165
3700	11.3055