Folder: Graphs/Example Data/Raman/Kara/12-20-10/Si-Graphene/6bulk

Note: README.md
# Graphs
A macOS app that manages the organization of data files and graphs them.

Licensed under the MIT licensing terms: https://opensource.org/licenses/MIT

Hildreth wrote the precursor to Graphs, then called GraphBase, during his Ph.D. to help manage the data he was collecting as part of his research on Metal-assisted Chemical Etching of Silicon.  He was becoming overwhelmed by the hundreds of data files he was collecting every week and was inspired by the Papers and iTunes applications on OS X (now macOS) to create an application that managed data.  GraphBase provided an easy template to create a parser, a simple UI to organize data into hiarchical folders, and leveraged the DataGraph framework (http://www.visualdatatools.com/DataGraph/Framework/) for graphing.  DataGraph (http://www.visualdatatools.com/DataGraph/) is an amazing 2D graphing application and you will need to purchase a DataGraph license from Visual Data Tools in order to use Graphs.

Graphs is a rewrite of GraphBase in Swift written by Connor and then re-written again by Hildreth that has been open sourced for use by all.  Please not that you will need a DataGraph license to create the graph templates used by the DataGraph framework underlying Graphs.  Hildreth plans to continue evolving this application.  The next plan improvements are: multithreading for import and parsing using the new Results type in Swift; and begin switching over to SwiftUI for the UI.  Long term, we hope to add support for data analysis and extraction.

# Overview
Graphs is a data management tool that allows you to store your raw data files in a text formate (CSV, tab delimited, etc.) and then have those files parsed and graphed when selected.  Graphs uses the DataGraph fromework 

To use Graphs, first you create an example graph, what we call a Graph Template, in DataGraph.  Format the graph the way you want it to look and make sure that the Data Columns are in the same order as the columns in your data.  Next, you  add your "Graph Template" to Graphs using either the Graph Template Inspector on the right side of Graphs using using the "+" sign on the bottom left of the application.  You can also drag-and-drop the file onto a folder in the Source List.  Once you add a Graph Template, you can assign it to be the default Graph Template for a folder and any sub-folders using the Folder Inspector.

The second step is to make a Paser using the Parser Inspector.  It might be helpful to have an example file already in Graphs (see Step 3) because you can use the Text Inspector to see what lines your Experimental Details, Header, and Data start at.  Add a Parse Template using the + sign in the Parse Inspector's table and give the Parse Template a name.  If your data has experimental details at the top, then select the checkbox and set the starting and ending lines for this information.  If your data has a Header, select the Header checkbox, give it starting and ending line numbers, and then select the type of s

File: SGbulk.txt
300	2101.16
312.649	2382.84
325.298	2679.48
337.946	2941.31
350.595	2953.58
363.244	2966.2
375.893	2930.36
388.542	2880.55
401.19	2959.35
413.839	2997.04
426.488	3035.61
439.137	3066.46
451.786	3142.56
464.435	3287.24
477.083	3549.18
489.732	4174.79
502.381	5424.42
515.03	4345.21
527.679	3314.86
540.327	3106.1
552.976	3086.26
565.625	3130
578.274	3145.71
590.923	3179.89
603.571	3190.96
616.22	3240.54
628.869	3238.4
641.518	3252.58
654.167	3298.91
666.815	3316.26
679.464	3290.97
692.113	3327.23
704.762	3351.66
717.411	3372.94
730.06	3444.14
742.708	3507.62
755.357	3593.54
768.006	3597.79
780.655	3623.58
793.304	3649.01
805.952	3680.32
818.601	3708.5
831.25	3780.93
843.899	3842.69
856.548	3885.08
869.196	3910.29
881.845	3990.67
894.494	4045.43
907.143	4125.56
919.792	4189.81
932.44	4180.5
945.089	4217.53
957.738	4261.95
970.387	4233.96
983.036	4158.35
995.685	4223.84
1008.33	4216.51
1020.98	4337.97
1033.63	4357.76
1046.28	4412.04
1058.93	4443.6
1071.58	4469.3
1084.23	4502.27
1096.875	4496.12
1109.52	4594.68
1122.17	4663.96
1134.82	4720.51
1147.47	4824.84
1160.12	4859.64
1172.77	4929.2
1185.42	4951.37
1198.07	5055.42
1210.71	5047.89
1223.36	5163.75
1236.01	5324.67
1248.66	5390.61
1261.31	5457.4
1273.96	5534.49
1286.61	5515.73
1299.26	5594.77
1311.9	5680.89
1324.55	5819.26
1337.2	5916.8
1349.85	6004.71
1362.5	6182.34
1375.15	6209.78
1387.8	6331.19
1400.45	6381.73
1413.1	6427.8
1425.74	6518.09
1438.39	6687.64
1451.04	6800.5
1463.69	6957.7
1476.34	7004.56
1488.99	7022.46
1501.64	7142.7
1514.29	7156.14
1526.93	7192.51
1539.58	7238.1
1552.23	7273.79
1564.88	7376.38
1577.53	7512.67
1590.18	7568.12
1602.83	7713.52
1615.48	7776.16
1628.125	7809.11
1640.77	7837.05
1653.42	7937.97
1666.07	8034.81
1678.72	8071.94
1691.37	8146.28
1704.02	8192.22
1716.67	8349.09
1729.32	8456.72
1741.96	8508.13
1754.61	8579.14
1767.26	8708.73
1779.91	8783.56
1792.56	8897.95
1805.21	9050.84
1817.86	9092.03
1830.51	9279.62
1843.15	9428.1
1855.8	9472.58
1868.45	9616.22
1881.1	9708.53
1893.75	9726.25
1906.4	9816.1
1919.05	9942.26
1931.7	10040.6
1944.35	10059.5
1956.99	10225.8
1969.64	10322.9
1982.29	10444.1
1994.94	10698.6
2007.59	10864.7
2020.24	10975.4
2032.89	11168
2045.54	11289.8
2058.18	11354.6
2070.83	11474.8
2083.48	11659
2096.13	11808
2108.78	11867.3
2121.43	12003.2
2134.08	12209.2
2146.73	12458.7
2159.375	12585.9
2172.02	12806.4
2184.67	12961.3
2197.32	13116.3
2209.97	13226.9
2222.62	13424.7
2235.27	13580.6
2247.92	13758.5
2260.57	14061.1
2273.21	14329.7
2285.86	14520.3
2298.51	14822
2311.16	14937.9
2323.81	15159.6
2336.46	15252.3
2349.11	15404.9
2361.76	15644.7
2374.4	15835.7
2387.05	16040.4
2399.7	16266.9
2412.35	16494
2425	16723
2437.65	16965.625
2450.3	17181.5
2462.95	17356.3
2475.6	17483.3
2488.24	17686.2
2500.89	17987.2
2513.54	18120.5
2526.19	18417.3
2538.84	18718.6
2551.49	18998
2564.14	19246.8
2576.79	19517.9
2589.43	19692.2
2602.08	19905.8
2614.73	20064.9
2627.38	20304.1
2640.03	20473.7
2652.68	20921.2
2665.33	21075.4
2677.98	21469.2
2690.625	21831.6
2703.27	22194
2715.92	22463.5
2728.57	22705.5
2741.22	22962.4
2753.87	23206.1
2766.52	23591.6
2779.17	23849.6
2791.82	24204
2804.46	24413.3
2817.11	24757.4
2829.76	25064.4
2842.41	25402.2
2855.06	25782.9
2867.71	26155.4
2880.36	26657.8
2893.01	27131.8
2905.65	27522.2
2918.3	28032.7
2930.95	28461.4
2943.6	28896
2956.25	29050.5
2968.9	29257.3
2981.55	29560.6
2994.2	29845.8
3006.85	30182.4
3019.49	30728
3032.14	31198.9
3044.79	31750.8
3057.44	32313.5
3070.09	32821.6
3082.74	33383.6
3095.39	33763.2
3108.04	34069.7
3120.68	34506.875
3133.33	34807.6
3145.98	35259
3158.63	35713.8
3171.28	36319.6
3183.93	36798.8
3196.58	37483
3209.23	38063.4
3221.875	38654.5
3234.52	39285.4
3247.17	39903.1
3259.82	40315.9
3272.47	40902.6
3285.12	41265.7
3297.77	41876.7
3310.42	42312.1
3323.07	42734
3335.71	43101.3
3348.36	43761.8
3361.01	44200.2
3373.66	44724
3386.31	45226.9
3398.96	45816.1
3411.61	46530.3
3424.26	47042.4
3436.9	47584.2
3449.55	48567.2
3462.2	49076.5
3474.85	49516.9
3487.5	50099.25
3500.15	50706.1
3512.8	51243.9
3525.45	51995
3538.1	52520.7
3550.74	53350.4
3563.39	54141.6
3576.04	54641.7
3588.69	55410.8
3601.34	56127.7
3613.99	56915.2
3626.64	57339.8
3639.29	57789.8
3651.93	58226.1
3664.58	58907.7
3677.23	58992.7
3689.88	59433.7
3700	59665

File: SGbulk_2.txt
300	1868.47
312.649	2133.72
325.298	2349.17
337.946	2549.13
350.595	2550.32
363.244	2529.51
375.893	2529.69
388.542	2498.03
401.19	2521.16
413.839	2625.49
426.488	2632.9
439.137	2645.18
451.786	2698.17
464.435	2862.26
477.083	3155.03
489.732	3796.87
502.381	5130.26
515.03	4094.41
527.679	2953.11
540.327	2695.79
552.976	2651.8
565.625	2656.76
578.274	2640.12
590.923	2688.5
603.571	2717.83
616.22	2727.09
628.869	2744.25
641.518	2754.94
654.167	2814.92
666.815	2826.16
679.464	2806.72
692.113	2827.24
704.762	2816.02
717.411	2882.18
730.06	2872.12
742.708	2955.44
755.357	2985.63
768.006	3023.09
780.655	3050.41
793.304	3088.57
805.952	3107.57
818.601	3166.28
831.25	3174.92
843.899	3241.81
856.548	3295.89
869.196	3324.2
881.845	3368.76
894.494	3483.46
907.143	3529.2
919.792	3576.38
932.44	3604.61
945.089	3604.85
957.738	3576.47
970.387	3516.23
983.036	3524.65
995.685	3541.02
1008.33	3612.9
1020.98	3627.71
1033.63	3670.21
1046.28	3703.19
1058.93	3721.49
1071.58	3730.49
1084.23	3784.21
1096.875	3762.87
1109.52	3856.98
1122.17	3907.37
1134.82	4002.83
1147.47	4048.25
1160.12	4097.78
1172.77	4155.18
1185.42	4139.5
1198.07	4204.41
1210.71	4325.17
1223.36	4325.63
1236.01	4398.83
1248.66	4490.14
1261.31	4576.57
1273.96	4598.59
1286.61	4599.32
1299.26	4673.84
1311.9	4837.79
1324.55	4820.98
1337.2	5011.91
1349.85	5038.14
1362.5	5173.35
1375.15	5224.52
1387.8	5293.53
1400.45	5310.49
1413.1	5377.29
1425.74	5457.04
1438.39	5607.86
1451.04	5695.16
1463.69	5795.98
1476.34	5859.47
1488.99	5878.03
1501.64	5977.66
1514.29	6011.8
1526.93	6020.5
1539.58	6060
1552.23	6090.64
1564.88	6169.28
1577.53	6298.92
1590.18	6391.76
1602.83	6463.58
1615.48	6569.3
1628.125	6598.95
1640.77	6614.49
1653.42	6628.01
1666.07	6750.3
1678.72	6775.94
1691.37	6880.98
1704.02	6930.81
1716.67	7009.4
1729.32	7103.94
1741.96	7190.44
1754.61	7212.1
1767.26	7353.01
1779.91	7345.96
1792.56	7479.81
1805.21	7571
1817.86	7675.48
1830.51	7830.81
1843.15	7918.92
1855.8	7967.17
1868.45	8064.49
1881.1	8153.77
1893.75	8256.01
1906.4	8330.4
1919.05	8398.12
1931.7	8418.65
1944.35	8542.99
1956.99	8630.68
1969.64	8697.77
1982.29	8905.92
1994.94	8999.5
2007.59	9102.7
2020.24	9230.78
2032.89	9387.51
2045.54	9537.12
2058.18	9535.46
2070.83	9661.69
2083.48	9783.41
2096.13	9863.63
2108.78	9968
2121.43	10087.9
2134.08	10302.8
2146.73	10431.8
2159.375	10578.2
2172.02	10751
2184.67	10913.2
2197.32	10990.7
2209.97	11145.5
2222.62	11242
2235.27	11310.4
2247.92	11561.6
2260.57	11822.6
2273.21	12029.7
2285.86	12181.7
2298.51	12435.4
2311.16	12539.6
2323.81	12720.5
2336.46	12845.6
2349.11	12950.9
2361.76	13103
2374.4	13212.3
2387.05	13449.9
2399.7	13635.4
2412.35	13803.8
2425	14093.2
2437.65	14315.6
2450.3	14439.3
2462.95	14601.4
2475.6	14754.1
2488.24	14899.5
2500.89	15111.7
2513.54	15332.2
2526.19	15528.1
2538.84	15877.3
2551.49	16087.1
2564.14	16379.8
2576.79	16551.5
2589.43	16703
2602.08	16896.8
2614.73	17070.6
2627.38	17229.6
2640.03	17522.6
2652.68	17779
2665.33	18125.4
2677.98	18381
2690.625	18696.3
2703.27	18965.7
2715.92	19247
2728.57	19472.6
2741.22	19762.7
2753.87	20016.2
2766.52	20372.4
2779.17	20572.9
2791.82	20794.5
2804.46	21139.6
2817.11	21407.4
2829.76	21695.9
2842.41	21972.2
2855.06	22414.7
2867.71	22790.6
2880.36	23325.9
2893.01	23649.2
2905.65	24057.5
2918.3	24527.2
2930.95	24905.6
2943.6	25248.6
2956.25	25617.8
2968.9	25728.7
2981.55	26007.3
2994.2	26362
3006.85	26658.3
3019.49	27188
3032.14	27651.5
3044.79	28141.6
3057.44	28763.8
3070.09	29121.5
3082.74	29795.5
3095.39	30054.8
3108.04	30578.2
3120.68	30827.5
3133.33	31165.6
3145.98	31538.5
3158.63	31972.6
3171.28	32456.5
3183.93	32989.7
3196.58	33637
3209.23	34277.9
3221.875	34853.4
3234.52	35390.9
3247.17	35920.1
3259.82	36331.5
3272.47	36722.5
3285.12	37137.4
3297.77	37703.9
3310.42	38213.75
3323.07	38649
3335.71	39024.8
3348.36	39591.1
3361.01	39982.6
3373.66	40529.1
3386.31	41068.2
3398.96	41537.1
3411.61	42288.6
3424.26	42747.5
3436.9	43319.3
3449.55	44141.1
3462.2	44960.2
3474.85	45039.4
3487.5	45810.8
3500.15	46200.1
3512.8	46694
3525.45	47325.3
3538.1	47989.1
3550.74	48560.7
3563.39	49464.4
3576.04	50025.9
3588.69	50744.4
3601.34	51502.2
3613.99	51927.3
3626.64	52582.2
3639.29	53112.2
3651.93	53639.8
3664.58	54146.9
3677.23	54599.9
3689.88	55050.2
3700	55409

File: SGbulk_3.txt
300	2573.42
303.017	2562.91
306.034	2542.74
309.052	2512.92
312.069	2505.22
315.086	2497.98
318.103	2457.91
321.121	2460.08
324.138	2456.23
327.155	2411.02
330.172	2408.52
333.19	2407.78
336.207	2398.84
339.224	2427.55
342.241	2407.86
345.259	2390.08
348.276	2386.21
351.293	2399.44
354.31	2417.08
357.328	2398.34
360.345	2383.86
363.362	2405.4
366.379	2402.78
369.397	2366.48
372.414	2394.29
375.431	2398.58
378.448	2392
381.466	2393.31
384.483	2392.89
387.5	2372.64
390.517	2352.44
393.534	2356.6
396.552	2357
399.569	2361.99
402.586	2395.11
405.603	2422.12
408.621	2437.7
411.638	2448.52
414.655	2450.48
417.672	2463.53
420.69	2494.6
423.707	2493.77
426.724	2460.3
429.741	2502.4
432.759	2481.16
435.776	2501.16
438.793	2482.66
441.81	2494.6
444.828	2518.65
447.845	2535.19
450.862	2542.41
453.879	2613.43
456.897	2597.27
459.914	2621.08
462.931	2681.16
465.948	2758.95
468.966	2797.46
471.983	2852.06
475	2926.7
478.017	3041.69
481.034	3147.39
484.052	3261.31
487.069	3473.53
490.086	3656.53
493.103	3945.22
496.121	4330.96
499.138	4750.45
502.155	5140.75
505.172	5412.83
508.19	5351.65
511.207	4994.29
514.224	4497.52
517.241	3958.76
520.259	3479.21
523.276	3144.41
526.293	2926.41
529.31	2788.3
532.328	2670.73
535.345	2593.66
538.362	2557.86
541.379	2513.03
544.397	2475.42
547.414	2456.13
550.431	2443.23
553.448	2435.14
556.466	2436.94
559.483	2450.01
562.5	2465.58
565.517	2457.37
568.534	2459.23
571.552	2463.09
574.569	2437.11
577.586	2461.91
580.603	2483
583.621	2498.37
586.638	2525.84
589.655	2501.09
592.672	2497.71
595.69	2520.79
598.707	2525.32
601.724	2524.46
604.741	2535.21
607.759	2569
610.776	2589.11
613.793	2585.1
616.81	2572.01
619.828	2540.23
622.845	2545.79
625.862	2552.43
628.879	2551.87
631.897	2557.33
634.914	2555.77
637.931	2565.17
640.948	2583.85
643.966	2585.19
646.983	2595.44
650	2604.54
653.017	2596.34
656.034	2588.75
659.052	2602.93
662.069	2622.06
665.086	2657.79
668.103	2639.8
671.121	2619.31
674.138	2607.78
677.155	2616.29
680.172	2631.15
683.19	2638.78
686.207	2629.13
689.224	2607.84
692.241	2615.51
695.259	2599.63
698.276	2610.2
701.293	2646.69
704.31	2646.51
707.328	2662.61
710.345	2659.08
713.362	2639.66
716.379	2648.13
719.397	2682.95
722.414	2697.92
725.431	2701.74
728.448	2725.7
731.466	2723.96
734.483	2720.57
737.5	2734.93
740.517	2765.62
743.534	2791.11
746.552	2816.08
749.569	2812.91
752.586	2822.31
755.603	2827.79
758.621	2819.61
761.638	2818.23
764.655	2805.68
767.672	2836.14
770.69	2852.88
773.707	2866.78
776.724	2878.7
779.741	2862.54
782.759	2880.61
785.776	2869.78
788.793	2903.62
791.81	2905.48
794.828	2908.82
797.845	2896.74
800.862	2919.99
803.879	2913.08
806.897	2919.93
809.914	2937.98
812.931	2946.02
815.948	2943.77
818.966	2983.48
821.983	2990.75
825	2985.09
828.017	3039.38
831.034	3026.05
834.052	3075.54
837.069	3031.35
840.086	3043.02
843.103	3088.88
846.121	3026.21
849.138	3071.08
852.155	3118.39
855.172	3094.54
858.19	3120.63
861.207	3156.06
864.224	3142.75
867.241	3164.81
870.259	3151.51
873.276	3177.54
876.293	3221.19
879.31	3217.19
882.328	3204.49
885.345	3245.66
888.362	3252.5
891.379	3255.9
894.397	3293.78
897.414	3319.07
900.431	3354.36
903.448	3352.55
906.466	3380.75
909.483	3398.48
912.5	3411.47
915.517	3365.56
918.534	3393.47
921.552	3444.97
924.569	3433.47
927.586	3430.56
930.603	3395.75
933.621	3451.27
936.638	3438.06
939.655	3533.42
942.672	3473.69
945.69	3485.76
948.707	3445.52
951.724	3516.33
954.741	3474.58
957.759	3437.2
960.776	3438.9
963.793	3431.66
966.81	3428
969.828	3418.46
972.845	3408.79
975.862	3425.58
978.879	3423.86
981.897	3412.58
984.914	3411.05
987.931	3404.79
990.948	3384.62
993.966	3416.49
996.983	3414.27
1000	3436.49

File: SGbulk_4.txt
300	172.549
312.649	213.119
325.298	214.035
337.946	218.357
350.595	204.805
363.244	191.943
375.893	174.958
388.542	171.449
401.19	173.001
413.839	159.376
426.488	176.39
439.137	186.948
451.786	170.739
464.435	180.068
477.083	228.639
489.732	325.603
502.381	542.049
515.03	1962.5
527.679	4412.79
540.327	446.385
552.976	179.458
565.625	97.9313
578.274	67.8641
590.923	65.9562
603.571	67.1257
616.22	84.0845
628.869	75.2376
641.518	71.9069
654.167	75.6193
666.815	73.6094
679.464	67.8531
692.113	55.8599
704.762	49.6156
717.411	47.1325
730.06	36.6888
742.708	42.8585
755.357	40.3238
768.006	50.6311
780.655	49.7721
793.304	53.9981
805.952	61.1024
818.601	67.7046
831.25	75.7154
843.899	64.5174
856.548	65.9737
869.196	68.9476
881.845	60.736
894.494	72.827
907.143	79.6083
919.792	105.039
932.44	197.834
945.089	249.562
957.738	252.537
970.387	232.536
983.036	187.727
995.685	109.782
1008.33	73.526
1020.98	54.8451
1033.63	30.042
1046.28	19.7919
1058.93	12.6852
1071.58	10.1371
1084.23	9.77545
1096.875	9.47216
1109.52	2.18528
1122.17	9.25241
1134.82	5.715
1147.47	5.6142
1160.12	1.37094
1172.77	4.17758
1185.42	-1.60298
1198.07	0.864674
1210.71	-0.603408
1223.36	2.54309
1236.01	2.83396
1248.66	2.40526
1261.31	9.26305
1273.96	4.41404
1286.61	9.94622
1299.26	8.72511
1311.9	7.36511
1324.55	14.4513
1337.2	21.4435
1349.85	22.6834
1362.5	27.3627
1375.15	27.5671
1387.8	17.9268
1400.45	17.9765
1413.1	14.4836
1425.74	10.2561
1438.39	8.40613
1451.04	5.93738
1463.69	4.81625
1476.34	4.37679
1488.99	5.66523
1501.64	1.53343
1514.29	2.21102
1526.93	3.8477
1539.58	4.70127
1552.23	7.11114
1564.88	8.18147
1577.53	8.35577
1590.18	10.8147
1602.83	12.8208
1615.48	7.13261
1628.125	6.26075
1640.77	1.66592
1653.42	1
1666.07	-2.68495
1678.72	-4.65811
1691.37	-5.45131
1704.02	-7.93019
1716.67	-9.0077
1729.32	-4.5414
1741.96	-6.63217
1754.61	-8.22027
1767.26	-4.82447
1779.91	-4.50488
1792.56	-7.97072
1805.21	-3.59006
1817.86	-7.4918
1830.51	-9.77519
1843.15	-3.6485
1855.8	-4.569
1868.45	-6.54987
1881.1	-5.3613
1893.75	-8.67066
1906.4	-8.03455
1919.05	-10.11
1931.7	-9.58796
1944.35	-7.35201
1956.99	-5.72342
1969.64	-7.43496
1982.29	-7.34547
1994.94	-7.2974
2007.59	-6.17498
2020.24	-7.73019
2032.89	-9.28507
2045.54	-6.71638
2058.18	-7.94718
2070.83	-9.10716
2083.48	-6.87941
2096.13	-8.07756
2108.78	-5.14568
2121.43	-5.54106
2134.08	-5.30343
2146.73	-6.94193
2159.375	-3.88254
2172.02	-6.65583
2184.67	-5.40731
2197.32	-6.84285
2209.97	-7.59396
2222.62	-4.77111
2235.27	-5.31082
2247.92	-7.23396
2260.57	-5.67512
2273.21	-4.54235
2285.86	-3.36449
2298.51	-4.02592
2311.16	-4.61131
2323.81	-4.10662
2336.46	4.08378
2349.11	-3.71663
2361.76	-6.0924
2374.4	-3.64939
2387.05	-2.51948
2399.7	1.38282
2412.35	-1.30561
2425	4.16179
2437.65	13.1193
2450.3	12.7334
2462.95	2.01015
2475.6	2.51524
2488.24	1.11946
2500.89	0.686111
2513.54	1.22345
2526.19	4.05257
2538.84	2.49502
2551.49	0.55218
2564.14	1.45428
2576.79	1.8245
2589.43	2.41839
2602.08	3.1979
2614.73	2.67596
2627.38	0.996351
2640.03	2.4827
2652.68	2.89483
2665.33	5.81836
2677.98	5.93128
2690.625	7.04248
2703.27	4.18132
2715.92	4.44926
2728.57	7.77999
2741.22	3.46618
2753.87	5.79842
2766.52	3.65855
2779.17	4.77895
2791.82	2.76418
2804.46	5.19585
2817.11	5.42924
2829.76	7.53696
2842.41	5.63072
2855.06	5.84414
2867.71	5.10174
2880.36	4.21367
2893.01	9.35954
2905.65	4.20813
2918.3	8.99534
2930.95	8.7725
2943.6	10.4794
2956.25	7.31885
2968.9	8.02009
2981.55	8.73902
2994.2	6.9191
3006.85	7.57134
3019.49	6.67033
3032.14	6.13849
3044.79	8.52143
3057.44	6.33831
3070.09	3.79906
3082.74	5.83969
3095.39	5.06528
3108.04	6.11778
3120.68	4.66365
3133.33	5.25354
3145.98	2.45017
3158.63	3.98364
3171.28	2.92586
3183.93	5.31723
3196.58	3.35417
3209.23	8.17263
3221.875	7.5738
3234.52	3.68127
3247.17	4.09419
3259.82	5.70867
3272.47	7.96889
3285.12	4.75635
3297.77	7.16299
3310.42	9.77005
3323.07	9.66805
3335.71	8.61987
3348.36	8.34222
3361.01	6.84457
3373.66	7.28129
3386.31	7.52545
3398.96	9.71778
3411.61	5.74353
3424.26	5.09505
3436.9	10.1064
3449.55	7.22705
3462.2	10.99
3474.85	5.02462
3487.5	11.8294
3500.15	12.0614
3512.8	9.22511
3525.45	5.97266
3538.1	8.20217
3550.74	6.33823
3563.39	8.92575
3576.04	7.1604
3588.69	13.66
3601.34	7.89089
3613.99	9.26821
3626.64	10.1749
3639.29	10.2892
3651.93	8.18347
3664.58	13.0861
3677.23	9.90133
3689.88	5.20567
3700	11.7859

File: SGbulk_5.txt
300	164.682
312.649	228.158
325.298	214.724
337.946	216.553
350.595	204.2
363.244	187.051
375.893	175.233
388.542	166.658
401.19	162.193
413.839	165.677
426.488	170.184
439.137	183.368
451.786	172.574
464.435	178.308
477.083	229.635
489.732	315.621
502.381	527.05
515.03	1982.88
527.679	4369.17
540.327	432.208
552.976	168.456
565.625	98.2722
578.274	66.186
590.923	61.1593
603.571	62.04
616.22	77.8859
628.869	73.4336
641.518	60.1534
654.167	68.6012
666.815	61.6871
679.464	60.0957
692.113	50.4924
704.762	37.7195
717.411	38.4892
730.06	34.5762
742.708	36.6982
755.357	41.6403
768.006	42.9843
780.655	45.9977
793.304	49.0587
805.952	63.8054
818.601	65.7787
831.25	62.002
843.899	66.4162
856.548	57.0185
869.196	62.1992
881.845	63.432
894.494	70.227
907.143	69.465
919.792	102.971
932.44	193.242
945.089	247.192
957.738	246.668
970.387	230.832
983.036	186.309
995.685	109.182
1008.33	60.3546
1020.98	47.3655
1033.63	25.8626
1046.28	16.3838
1058.93	8.60868
1071.58	8.21118
1084.23	7.63158
1096.875	5.90586
1109.52	5.85423
1122.17	5.19247
1134.82	4.41583
1147.47	-0.392901
1160.12	1.45469
1172.77	-1.46622
1185.42	-6.06089
1198.07	-0.358504
1210.71	-5.12795
1223.36	-0.0605707
1236.01	0.332967
1248.66	-0.8
1261.31	3.42171
1273.96	2.57304
1286.61	3.95126
1299.26	7.19362
1311.9	2.8814
1324.55	13.7294
1337.2	5.55872
1349.85	22.0948
1362.5	27.4289
1375.15	20.3874
1387.8	14.1195
1400.45	11.4703
1413.1	7.07249
1425.74	1.60147
1438.39	4.33538
1451.04	8.23131
1463.69	0.571765
1476.34	2.15812
1488.99	3.58278
1501.64	2.34277
1514.29	0.680435
1526.93	0.146986
1539.58	-2.76051
1552.23	1
1564.88	7.99872
1577.53	8.05481
1590.18	8.10736
1602.83	10.4182
1615.48	11.1408
1628.125	5.29186
1640.77	-0.595533
1653.42	-2.01041
1666.07	-7.67595
1678.72	-10.001
1691.37	-6.62478
1704.02	-7.97064
1716.67	-7.25143
1729.32	-8.74184
1741.96	-11.285
1754.61	-8.37427
1767.26	-12.8098
1779.91	-7.90814
1792.56	-8.07735
1805.21	-11.3976
1817.86	-12.3747
1830.51	-9.28269
1843.15	-8.15354
1855.8	-7.57683
1868.45	-12.2
1881.1	-11.1354
1893.75	-10.7461
1906.4	-11.3654
1919.05	-8.762
1931.7	-10.206
1944.35	-11.7552
1956.99	-11.8728
1969.64	-7.79105
1982.29	-12.7152
1994.94	-8.05288
2007.59	-12.4918
2020.24	-10.4698
2032.89	-11.459
2045.54	-12.3627
2058.18	-9.42774
2070.83	-13.4756
2083.48	-10.8367
2096.13	-11.1357
2108.78	-9.7691
2121.43	-10.6003
2134.08	-10.767
2146.73	-10.4926
2159.375	-9.25103
2172.02	-9.20062
2184.67	-10.1323
2197.32	-6.38339
2209.97	-9.06526
2222.62	-6.82952
2235.27	-9.25323
2247.92	-8.28286
2260.57	-5.6496
2273.21	-8.22046
2285.86	-5.46997
2298.51	-7.08952
2311.16	-7.1374
2323.81	-5.85959
2336.46	-0.743429
2349.11	-6.76774
2361.76	-6.87704
2374.4	-5.5504
2387.05	-5.0827
2399.7	-1.21731
2412.35	-4.66814
2425	1.58395
2437.65	14.3079
2450.3	8.91274
2462.95	-0.167231
2475.6	-1.14047
2488.24	0.588383
2500.89	-0.95989
2513.54	-0.207481
2526.19	-0.0319612
2538.84	0.514434
2551.49	-0.834349
2564.14	-1.42841
2576.79	-1.04312
2589.43	-0.460801
2602.08	-1.15612
2614.73	-1.56123
2627.38	-1.10456
2640.03	0.139135
2652.68	0.714117
2665.33	4.85185
2677.98	0.155735
2690.625	-1.11925
2703.27	3.46955
2715.92	2.99381
2728.57	3.76407
2741.22	4.45349
2753.87	1.01057
2766.52	-0.354947
2779.17	2.57054
2791.82	5.40317
2804.46	2.45292
2817.11	4.90549
2829.76	1.70326
2842.41	4.07001
2855.06	2.54196
2867.71	3.10421
2880.36	5.9462
2893.01	3.48823
2905.65	5.36901
2918.3	8.04844
2930.95	6.70132
2943.6	8.04916
2956.25	7.43986
2968.9	3.35068
2981.55	6.37316
2994.2	0.314168
3006.85	2.75953
3019.49	1.37936
3032.14	-0.182626
3044.79	2.46571
3057.44	2.3676
3070.09	1.41718
3082.74	3.70025
3095.39	3.6409
3108.04	1.11545
3120.68	1.87321
3133.33	1.8796
3145.98	3.53986
3158.63	7.47446
3171.28	0.108982
3183.93	3.31468
3196.58	2.41447
3209.23	3.54854
3221.875	4.88801
3234.52	2.57556
3247.17	4.96095
3259.82	6.84959
3272.47	3.76693
3285.12	0.414526
3297.77	2.72649
3310.42	4.02217
3323.07	3.32286
3335.71	5.00473
3348.36	2.79985
3361.01	5.11672
3373.66	4.38615
3386.31	9.87889
3398.96	4.51437
3411.61	0.736512
3424.26	4.44415
3436.9	11.177
3449.55	6.49657
3462.2	3.82323
3474.85	10.2646
3487.5	8.62255
3500.15	4.45707
3512.8	7.83931
3525.45	8.03282
3538.1	5.22336
3550.74	5.39292
3563.39	5.99988
3576.04	5.62162
3588.69	6.71056
3601.34	6.96205
3613.99	9.62381
3626.64	6.38819
3639.29	8.39309
3651.93	3.53858
3664.58	8.38591
3677.23	5.67989
3689.88	13.5269
3700	8.65991