Folder: Graphs/Example Data/Raman/Kara/12-20-10/Si-Graphene/7bulk

Note: README.md
# Graphs
A macOS app that manages the organization of data files and graphs them.

Licensed under the MIT licensing terms: https://opensource.org/licenses/MIT

Hildreth wrote the precursor to Graphs, then called GraphBase, during his Ph.D. to help manage the data he was collecting as part of his research on Metal-assisted Chemical Etching of Silicon.  He was becoming overwhelmed by the hundreds of data files he was collecting every week and was inspired by the Papers and iTunes applications on OS X (now macOS) to create an application that managed data.  GraphBase provided an easy template to create a parser, a simple UI to organize data into hiarchical folders, and leveraged the DataGraph framework (http://www.visualdatatools.com/DataGraph/Framework/) for graphing.  DataGraph (http://www.visualdatatools.com/DataGraph/) is an amazing 2D graphing application and you will need to purchase a DataGraph license from Visual Data Tools in order to use Graphs.

Graphs is a rewrite of GraphBase in Swift written by Connor and then re-written again by Hildreth that has been open sourced for use by all.  Please not that you will need a DataGraph license to create the graph templates used by the DataGraph framework underlying Graphs.  Hildreth plans to continue evolving this application.  The next plan improvements are: multithreading for import and parsing using the new Results type in Swift; and begin switching over to SwiftUI for the UI.  Long term, we hope to add support for data analysis and extraction.

# Overview
Graphs is a data management tool that allows you to store your raw data files in a text formate (CSV, tab delimited, etc.) and then have those files parsed and graphed when selected.  Graphs uses the DataGraph fromework 

To use Graphs, first you create an example graph, what we call a Graph Template, in DataGraph.  Format the graph the way you want it to look and make sure that the Data Columns are in the same order as the columns in your data.  Next, you  add your "Graph Template" to Graphs using either the Graph Template Inspector on the right side of Graphs using using the "+" sign on the bottom left of the application.  You can also drag-and-drop the file onto a folder in the Source List.  Once you add a Graph Template, you can assign it to be the default Graph Template for a folder and any sub-folders using the Folder Inspector.

The second step is to make a Paser using the Parser Inspector.  It might be helpful to have an example file already in Graphs (see Step 3) because you can use the Text Inspector to see what lines your Experimental Details, Header, and Data start at.  Add a Parse Template using the + sign in the Parse Inspector's table and give the Parse Template a name.  If your data has experimental details at the top, then select the checkbox and set the starting and ending lines for this information.  If your data has a Header, select the Header checkbox, give it starting and ending line numbers, and then select the type of s

File: SGbulk_1.txt
300	29.5846
312.649	37.6744
325.298	46.8915
337.946	46.7566
350.595	55.2276
363.244	58.7432
375.893	55.1167
388.542	58.1295
401.19	50.5851
413.839	55.7685
426.488	64.6874
439.137	71.1476
451.786	94.5392
464.435	101.176
477.083	115.567
489.732	113.002
502.381	67.7198
515.03	48.279
527.679	31.0891
540.327	15.129
552.976	12.104
565.625	9.79867
578.274	9.37751
590.923	10.1218
603.571	9.50854
616.22	9.65561
628.869	8.68319
641.518	10.611
654.167	4.54459
666.815	4.50021
679.464	4.08245
692.113	5.52285
704.762	3.687
717.411	5.80723
730.06	7.44549
742.708	10.4905
755.357	10.221
768.006	9.76929
780.655	8.73256
793.304	10.2917
805.952	10.7754
818.601	13.7379
831.25	12.0536
843.899	15.5977
856.548	14.9815
869.196	9.92619
881.845	13.072
894.494	14.0985
907.143	11.62
919.792	10.8415
932.44	3.14062
945.089	8.86324
957.738	3.27876
970.387	1.04074
983.036	2.31817
995.685	-0.35157
1008.33	0.248749
1020.98	-2.34947
1033.63	-3.45267
1046.28	-5.94797
1058.93	-3.91826
1071.58	-6.82518
1084.23	-8.5614
1096.875	-13.0216
1109.52	-8.6346
1122.17	-7.44277
1134.82	-7.99667
1147.47	-10.5929
1160.12	-11.0407
1172.77	-14.9851
1185.42	-11.0669
1198.07	-11.6976
1210.71	-10.5081
1223.36	-8.87154
1236.01	-11.6666
1248.66	-14.1295
1261.31	-12.6522
1273.96	-11.9146
1286.61	-11.6487
1299.26	-11.4502
1311.9	-8.78606
1324.55	-8.74224
1337.2	-9.61738
1349.85	-6.42397
1362.5	-5.61242
1375.15	-9.37723
1387.8	-9.85973
1400.45	-12.5059
1413.1	-8.62091
1425.74	-6.92951
1438.39	-10.7076
1451.04	-10.7952
1463.69	-10.5145
1476.34	-10.1721
1488.99	-14.3369
1501.64	-12.2
1514.29	-11.9256
1526.93	-11.592
1539.58	-9.83647
1552.23	-9.00023
1564.88	-5.98147
1577.53	-11.4159
1590.18	-8.60401
1602.83	-11.0619
1615.48	-7.22462
1628.125	-7.73779
1640.77	-10.3408
1653.42	-8.82751
1666.07	-11.2447
1678.72	-11.4906
1691.37	-11.6071
1704.02	-9.08975
1716.67	-11.7702
1729.32	-15.4586
1741.96	-11.4437
1754.61	-12.0055
1767.26	-10.7269
1779.91	-8.53128
1792.56	-9.4453
1805.21	-14.3408
1817.86	-11.7082
1830.51	-12.4925
1843.15	-14.2822
1855.8	-13.646
1868.45	-14.6825
1881.1	-10.5613
1893.75	-11.8167
1906.4	-10.0752
1919.05	-9.814
1931.7	-12.1609
1944.35	-9.97601
1956.99	-11.0804
1969.64	-12.5435
1982.29	-11.1727
1994.94	-10.6215
2007.59	-12.4584
2020.24	-12.2105
2032.89	-13.2582
2045.54	-10.209
2058.18	-12.9496
2070.83	-15.0486
2083.48	-13.2427
2096.13	-16.3242
2108.78	-12.171
2121.43	-12.3132
2134.08	-10.2723
2146.73	-10.1333
2159.375	-9.6841
2172.02	-10.9634
2184.67	-12.0313
2197.32	-13.7513
2209.97	-10.7793
2222.62	-12.2539
2235.27	-12.6992
2247.92	-8.74176
2260.57	-12.2117
2273.21	-9.78172
2285.86	-11.6124
2298.51	-7.54597
2311.16	-10.871
2323.81	-10.249
2336.46	-4.14297
2349.11	-9.72233
2361.76	-7.36151
2374.4	-10.0893
2387.05	-7.14554
2399.7	-6.62873
2412.35	-5.40484
2425	2.97464
2437.65	24.8704
2450.3	18.6488
2462.95	2.89068
2475.6	-1.94108
2488.24	0.126388
2500.89	-0.560097
2513.54	-1.27058
2526.19	-2.20994
2538.84	-3.30964
2551.49	-4.75638
2564.14	-3.50017
2576.79	-4.20125
2589.43	-5.63575
2602.08	-5.18593
2614.73	-3.39345
2627.38	-6.35211
2640.03	-3.13259
2652.68	-4.87669
2665.33	-2.79615
2677.98	-4.46694
2690.625	-2.26009
2703.27	-3.35936
2715.92	-1.40026
2728.57	-4.97126
2741.22	-0.404736
2753.87	-4.11378
2766.52	0.0215622
2779.17	-2.5532
2791.82	-1.57667
2804.46	-2.08902
2817.11	-1.44198
2829.76	-2.85674
2842.41	-0.443278
2855.06	-2.96346
2867.71	-3.26627
2880.36	-0.901205
2893.01	-1.20205
2905.65	1.10412
2918.3	-0.980578
2930.95	0.983316
2943.6	2.64926
2956.25	4.30619
2968.9	1.48557
2981.55	0.288761
2994.2	1.80753
3006.85	-1.37943
3019.49	0.503066
3032.14	-5.66251
3044.79	-3.69589
3057.44	-4.30785
3070.09	-3.31451
3082.74	-2.99134
3095.39	-3.228
3108.04	-3.31602
3120.68	-1.68719
3133.33	-3.55443
3145.98	-2.41597
3158.63	0.41732
3171.28	-1.19522
3183.93	-0.143325
3196.58	-2.80233
3209.23	-1.84172
3221.875	1.372
3234.52	-0.655186
3247.17	-0.636582
3259.82	1.99021
3272.47	-0.411477
3285.12	-2.10513
3297.77	-0.980665
3310.42	0.610885
3323.07	2.54598
3335.71	-1.09715
3348.36	0.30144
3361.01	-2.48725
3373.66	-0.299575
3386.31	2.86907
3398.96	-0.489601
3411.61	0.805418
3424.26	5.85155
3436.9	5.35336
3449.55	5.39053
3462.2	1.62196
3474.85	-2.91661
3487.5	0.942544
3500.15	0.165954
3512.8	3.86152
3525.45	-0.545688
3538.1	3.81651
3550.74	-0.888858
3563.39	-1.74031
3576.04	4.30807
3588.69	1.92294
3601.34	1.92223
3613.99	4.43189
3626.64	3.66587
3639.29	6.34913
3651.93	2.64088
3664.58	0.99824
3677.23	4.19704
3689.88	3.78045
3700	9.36812

File: SGbulk_2.txt
300	35.8114
312.649	37.214
325.298	49.7159
337.946	57.5778
350.595	61.7093
363.244	55.1539
375.893	55.775
388.542	52.0164
401.19	63.7597
413.839	55.9035
426.488	62.861
439.137	72.1828
451.786	96.8914
464.435	102.556
477.083	114.708
489.732	111.405
502.381	75.1806
515.03	54.2631
527.679	29.6642
540.327	16.1236
552.976	14.6025
565.625	9.0024
578.274	12.2618
590.923	10.7219
603.571	12.5085
616.22	14.1022
628.869	11.8561
641.518	7.9767
654.167	7.60547
666.815	7.24846
679.464	9.62751
692.113	7.92284
704.762	11.1156
717.411	7.6494
730.06	8.97744
742.708	10.1387
755.357	11.3926
768.006	8.95759
780.655	8.1186
793.304	11.1514
805.952	14.1236
818.601	10.8302
831.25	14.5114
843.899	13.3843
856.548	14.0834
869.196	17.1
881.845	17.0481
894.494	12.4358
907.143	9.21753
919.792	8.86884
932.44	9.2
945.089	8.3673
957.738	7.9969
970.387	5.81914
983.036	5.09091
995.685	1.63789
1008.33	2.25042
1020.98	-0.0435625
1033.63	-1.39541
1046.28	-1.47888
1058.93	-2.60958
1071.58	-2.55665
1084.23	-6.89474
1096.875	-6.5
1109.52	-6.76172
1122.17	-8.10105
1134.82	-6.27875
1147.47	-9.1071
1160.12	-9.10119
1172.77	-9.15942
1185.42	-9.4594
1198.07	-9.47626
1210.71	-9.57702
1223.36	-9.07805
1236.01	-9.68335
1248.66	-9.20263
1261.31	-9.86305
1273.96	-8.2205
1286.61	-8.72437
1299.26	-8.04702
1311.9	-6.46745
1324.55	-5.79679
1337.2	-7.80869
1349.85	-4.05367
1362.5	-5.47586
1375.15	-3.96324
1387.8	-7.50269
1400.45	-4.79366
1413.1	-9.81637
1425.74	-7.38062
1438.39	-8.21084
1451.04	-7.75416
1463.69	-9.3265
1476.34	-9.64407
1488.99	-11.3484
1501.64	-10.3761
1514.29	-9.63168
1526.93	-7.36489
1539.58	-10.117
1552.23	-6.3775
1564.88	-5.08211
1577.53	-5.79471
1590.18	-6.11338
1602.83	-5.42769
1615.48	-6.54219
1628.125	-9.15334
1640.77	-9.86313
1653.42	-10.3115
1666.07	-8.50113
1678.72	-8.2911
1691.37	-11.7044
1704.02	-11.9003
1716.67	-9.57043
1729.32	-9.26519
1741.96	-10.7632
1754.61	-10.8468
1767.26	-8.53663
1779.91	-9.56546
1792.56	-8.79337
1805.21	-12.0753
1817.86	-10.9248
1830.51	-11.3884
1843.15	-11.9525
1855.8	-10.746
1868.45	-11.4825
1881.1	-10.7968
1893.75	-10.6473
1906.4	-9.96242
1919.05	-9.107
1931.7	-12.8503
1944.35	-8.644
1956.99	-11.457
1969.64	-11.8632
1982.29	-10.7492
1994.94	-11.5893
2007.59	-10.775
2020.24	-9.46871
2032.89	-8.65821
2045.54	-9.20226
2058.18	-11.1851
2070.83	-10.9683
2083.48	-11.5687
2096.13	-11.9239
2108.78	-10.7679
2121.43	-8.9996
2134.08	-8.53973
2146.73	-9.53044
2159.375	-9.34336
2172.02	-10.1789
2184.67	-9.61681
2197.32	-10.4965
2209.97	-10.339
2222.62	-9.71991
2235.27	-10.7463
2247.92	-9.43018
2260.57	-7.7727
2273.21	-8.5105
2285.86	-7.73992
2298.51	-8.3792
2311.16	-8.80069
2323.81	-8.32304
2336.46	-1.86998
2349.11	-6.42078
2361.76	-6.1724
2374.4	-5.16989
2387.05	-4.53537
2399.7	-5.26028
2412.35	-2.08787
2425	4.60416
2437.65	25.8314
2450.3	19.6141
2462.95	6.04303
2475.6	1.69472
2488.24	0.677914
2500.89	-0.654562
2513.54	-0.801591
2526.19	0.545793
2538.84	-0.391781
2551.49	-0.976216
2564.14	-3.09555
2576.79	-4.83515
2589.43	-4.16276
2602.08	-2.92597
2614.73	-3.53862
2627.38	-2.1421
2640.03	-1.57918
2652.68	-2.96785
2665.33	-0.828988
2677.98	-1.36113
2690.625	-0.210296
2703.27	0.267723
2715.92	-1.27502
2728.57	-1.24835
2741.22	-1.42305
2753.87	-0.6939
2766.52	-1.41541
2779.17	-1.32833
2791.82	-0.69545
2804.46	0.678443
2817.11	-0.173547
2829.76	-0.807608
2842.41	1.83897
2855.06	-2.66072
2867.71	2.08812
2880.36	1.19798
2893.01	0.857144
2905.65	2.33032
2918.3	1.98746
2930.95	3.84674
2943.6	2.52531
2956.25	4.15117
2968.9	3.9608
2981.55	0.53036
2994.2	-3.28328
3006.85	-0.654613
3019.49	1.02418
3032.14	-1.24223
3044.79	-2.45891
3057.44	1.0005
3070.09	-2.36242
3082.74	-0.0468764
3095.39	0.465012
3108.04	-0.40611
3120.68	-0.133224
3133.33	1.56882
3145.98	-0.00491238
3158.63	-0.784487
3171.28	-0.991481
3183.93	-2.10993
3196.58	-1.33245
3209.23	0.523021
3221.875	2.10304
3234.52	0.0431828
3247.17	1.16967
3259.82	4.47958
3272.47	1.86677
3285.12	2.09834
3297.77	3.00189
3310.42	0.255584
3323.07	2.32078
3335.71	2.47132
3348.36	-0.101361
3361.01	1.50465
3373.66	0.902045
3386.31	2.73123
3398.96	5.56353
3411.61	4.14708
3424.26	3.76366
3436.9	4.26468
3449.55	1.20186
3462.2	1.54032
3474.85	6.07047
3487.5	3.90997
3500.15	3.50954
3512.8	1.95304
3525.45	4.13189
3538.1	6.11434
3550.74	4.79698
3563.39	7.14349
3576.04	4.49481
3588.69	5.87064
3601.34	6.00888
3613.99	2.24594
3626.64	7.28116
3639.29	4.9893
3651.93	4.07036
3664.58	3.22526
3677.23	4.8126
3689.88	4.39024
3700	3.86091

File: SGbulk_3.txt
300	56.6541
312.649	72.2589
325.298	74.6945
337.946	97.553
350.595	86.1167
363.244	93.4745
375.893	88.0536
388.542	91.6923
401.19	88.2751
413.839	83.2957
426.488	104.183
439.137	117.764
451.786	140.696
464.435	163.648
477.083	168.855
489.732	171.364
502.381	118.15
515.03	79.8063
527.679	53.1662
540.327	36.4459
552.976	25.0129
565.625	25.4786
578.274	26.892
590.923	29.2187
603.571	21.0429
616.22	24.6643
628.869	20.8424
641.518	23.1624
654.167	20.0362
666.815	19.8918
679.464	21.8443
692.113	17.4503
704.762	22.0965
717.411	19.4596
730.06	25.017
742.708	22.8693
755.357	21.8209
768.006	17.7851
780.655	25.8987
793.304	29.0104
805.952	24.3294
818.601	25.067
831.25	26.5361
843.899	29.8663
856.548	29.3337
869.196	28.1655
881.845	35.1372
894.494	29.1257
907.143	22.2619
919.792	24.4221
932.44	17.9166
945.089	16.2803
957.738	16.09
970.387	18.0955
983.036	12.6494
995.685	12.8188
1008.33	11.6963
1020.98	9.47697
1033.63	7.97764
1046.28	8.96403
1058.93	4.20373
1071.58	0.240757
1084.23	1.29825
1096.875	-2.49398
1109.52	-1.51499
1122.17	-2.88619
1134.82	-4.08452
1147.47	-3.67075
1160.12	-1.76656
1172.77	-4.72325
1185.42	-3.51556
1198.07	-4.23605
1210.71	-2.82432
1223.36	-4.59755
1236.01	-4.92943
1248.66	-2.05096
1261.31	-5.82687
1273.96	-4.76525
1286.61	-4.4982
1299.26	-2.03131
1311.9	3.5847
1324.55	-1.00458
1337.2	-0.414595
1349.85	3.08254
1362.5	4.29852
1375.15	1.18989
1387.8	-0.113135
1400.45	-0.369705
1413.1	-3.45195
1425.74	1.64947
1438.39	-4.12971
1451.04	-4.17731
1463.69	1.97071
1476.34	-2.29569
1488.99	-7.39836
1501.64	-6.49646
1514.29	-6.71074
1526.93	-3.14096
1539.58	-6.07052
1552.23	-4.88913
1564.88	-2.02647
1577.53	-3.75721
1590.18	0.503345
1602.83	-4.33643
1615.48	-3.97182
1628.125	-4.34178
1640.77	-4.90822
1653.42	-3.68136
1666.07	-4.57223
1678.72	-3.95213
1691.37	-4.79897
1704.02	-5.12821
1716.67	-5.29086
1729.32	-6.37853
1741.96	-6.48608
1754.61	-7.40629
1767.26	-4.51566
1779.91	-2.20847
1792.56	-3.16824
1805.21	-6.80602
1817.86	-6.32151
1830.51	-4.85604
1843.15	-8.88215
1855.8	-4.75274
1868.45	-7.57143
1881.1	-10.5392
1893.75	-7.28571
1906.4	-7.65844
1919.05	-4.12857
1931.7	-2.12565
1944.35	-3.22172
1956.99	-6.05674
1969.64	-8.6957
1982.29	-5.01947
1994.94	-6.76626
2007.59	-8.45532
2020.24	-7.2117
2032.89	-6.77559
2045.54	-6.20258
2058.18	-8.19673
2070.83	-7.6087
2083.48	-6.86554
2096.13	-6.07052
2108.78	-4.44622
2121.43	-8.51221
2134.08	-5.68767
2146.73	-7.46933
2159.375	-6.01438
2172.02	-4.53771
2184.67	-4.86267
2197.32	-5.81604
2209.97	-5.57756
2222.62	-6.39758
2235.27	-6.75232
2247.92	-6.88614
2260.57	-4.54001
2273.21	-3.9565
2285.86	-5.55928
2298.51	-2.55637
2311.16	-5.73431
2323.81	-3.08172
2336.46	3.66201
2349.11	-1.86245
2361.76	-1.82561
2374.4	-0.969489
2387.05	-0.852059
2399.7	0.860259
2412.35	3.80131
2425	12.3139
2437.65	42.428
2450.3	35.1276
2462.95	16.464
2475.6	9.10674
2488.24	10.5785
2500.89	7.02311
2513.54	6.69952
2526.19	7.63248
2538.84	7.04236
2551.49	4.45378
2564.14	3.0034
2576.79	2.86959
2589.43	1.79363
2602.08	1.21196
2614.73	2.32024
2627.38	4.73197
2640.03	4.31584
2652.68	3.37938
2665.33	5.17273
2677.98	4.57012
2690.625	6.3129
2703.27	5.02478
2715.92	5.91946
2728.57	1.81874
2741.22	4.09871
2753.87	1.60534
2766.52	7.88972
2779.17	2.83196
2791.82	6.91147
2804.46	5.31222
2817.11	3.53442
2829.76	4.7091
2842.41	4.10299
2855.06	6.00126
2867.71	7.50106
2880.36	5.96437
2893.01	6.91455
2905.65	4.31701
2918.3	9.8223
2930.95	9.76272
2943.6	8.93706
2956.25	12.383
2968.9	7.90452
2981.55	6.97936
2994.2	7.11077
3006.85	5.89604
3019.49	4.94331
3032.14	3.1392
3044.79	3.34494
3057.44	5.10666
3070.09	6.51916
3082.74	6.64316
3095.39	3.73911
3108.04	3.37351
3120.68	6.36603
3133.33	6.36603
3145.98	8.17557
3158.63	7.49156
3171.28	5.17135
3183.93	5.54878
3196.58	5.53086
3209.23	6.63635
3221.875	7.61212
3234.52	3.9183
3247.17	6.32464
3259.82	8.04387
3272.47	11.103
3285.12	7.84042
3297.77	7.33699
3310.42	12.0416
3323.07	6.27018
3335.71	6.7173
3348.36	8.36039
3361.01	7.03832
3373.66	9.6197
3386.31	9.9208
3398.96	7.84552
3411.61	8.87857
3424.26	10.9299
3436.9	11.8553
3449.55	11.0535
3462.2	10.7441
3474.85	7.99768
3487.5	6.03794
3500.15	11.4935
3512.8	10.0485
3525.45	12.3836
3538.1	9.02132
3550.74	13.2653
3563.39	8.7644
3576.04	10.6715
3588.69	10.9719
3601.34	9.19789
3613.99	12.6973
3626.64	13.2988
3639.29	11.6935
3651.93	11.0493
3664.58	12.1588
3677.23	11.766
3689.88	9.21917
3700	10.4473

File: SGbulk_4.txt
300	94.3244
312.649	121.304
325.298	131.783
337.946	140.634
350.595	149.636
363.244	142.883
375.893	142.904
388.542	144.808
401.19	144.126
413.839	139.263
426.488	153.711
439.137	175.639
451.786	217.526
464.435	245.971
477.083	255.946
489.732	263.274
502.381	192.13
515.03	135.227
527.679	89.9572
540.327	70.377
552.976	54.4415
565.625	52.0466
578.274	52.9261
590.923	49.4782
603.571	54.5128
616.22	54.9614
628.869	51.8647
641.518	52.4808
654.167	50.3976
666.815	50.2097
679.464	53.4488
692.113	44.9096
704.762	47.7007
717.411	46.0759
730.06	47.111
742.708	48.099
755.357	55.5858
768.006	50.7808
780.655	51.107
793.304	55.2504
805.952	57.2482
818.601	53.2425
831.25	58.7959
843.899	58.9698
856.548	61.7483
869.196	62.5103
881.845	58.328
894.494	56.0179
907.143	56.0525
919.792	48.6902
932.44	48.8525
945.089	48.3
957.738	42.3535
970.387	40.8854
983.036	36.8364
995.685	29.3726
1008.33	32.5662
1020.98	28.5387
1033.63	29.7893
1046.28	29.513
1058.93	24.7939
1071.58	24.0657
1084.23	16.0386
1096.875	19.3542
1109.52	15.5481
1122.17	13.2642
1134.82	13.6708
1147.47	11.6589
1160.12	11.5233
1172.77	10.6769
1185.42	11.6752
1198.07	10.9043
1210.71	9.25574
1223.36	12.8
1236.01	9.99967
1248.66	10.7013
1261.31	14.2548
1273.96	11.9713
1286.61	10.2177
1299.26	14.4374
1311.9	11.4302
1324.55	18.4452
1337.2	20.9891
1349.85	17.3692
1362.5	17.8614
1375.15	18.1468
1387.8	16.1923
1400.45	16.306
1413.1	13.0209
1425.74	12.8554
1438.39	12.4215
1451.04	9.34457
1463.69	13.8244
1476.34	11.8791
1488.99	10.9527
1501.64	8.62868
1514.29	11.3603
1526.93	10.4669
1539.58	8.62102
1552.23	11.9108
1564.88	18.0879
1577.53	15.1478
1590.18	17.11
1602.83	15.2036
1615.48	17.1847
1628.125	13.1385
1640.77	11.2994
1653.42	9.94535
1666.07	12.5961
1678.72	9.06597
1691.37	10.1407
1704.02	5.20969
1716.67	7.92596
1729.32	7.13524
1741.96	8.59426
1754.61	7.1037
1767.26	9.59272
1779.91	14.6738
1792.56	9.69374
1805.21	9.9
1817.86	8.23349
1830.51	6.44961
1843.15	8.46465
1855.8	7.32317
1868.45	6.45509
1881.1	8.15488
1893.75	5.22934
1906.4	9.21728
1919.05	8.011
1931.7	11.2714
1944.35	10.5416
1956.99	10.8201
1969.64	5.77804
1982.29	4.04771
1994.94	6.33718
2007.59	4.32502
2020.24	5.70527
2032.89	5.38507
2045.54	6.27458
2058.18	4.22532
2070.83	5.62729
2083.48	6.32719
2096.13	7.47233
2108.78	6.42965
2121.43	8.11871
2134.08	8.89226
2146.73	6.84466
2159.375	7.16045
2172.02	7.40886
2184.67	8.75106
2197.32	6.87595
2209.97	7.88643
2222.62	7.88482
2235.27	5.21578
2247.92	5.98365
2260.57	9.51904
2273.21	9.37332
2285.86	9.82697
2298.51	9.20621
2311.16	8.81981
2323.81	8.05406
2336.46	23.5707
2349.11	10.2493
2361.76	10.6962
2374.4	10.1584
2387.05	11.5549
2399.7	15.2421
2412.35	20.0703
2425	34.245
2437.65	73.9337
2450.3	67.9839
2462.95	37.2256
2475.6	29.4368
2488.24	27.1954
2500.89	24.8342
2513.54	25.183
2526.19	25.0562
2538.84	25.731
2551.49	23.7007
2564.14	18.4441
2576.79	17.9923
2589.43	16.8467
2602.08	15.7494
2614.73	17.9214
2627.38	17.2012
2640.03	18.6844
2652.68	16.6027
2665.33	21.7563
2677.98	19.0098
2690.625	21.0693
2703.27	20.8487
2715.92	21.8403
2728.57	18.5399
2741.22	18.5282
2753.87	19.4208
2766.52	20.1551
2779.17	18.761
2791.82	20.3194
2804.46	18.0609
2817.11	21.8284
2829.76	20.1348
2842.41	19.6489
2855.06	20.0343
2867.71	21.8225
2880.36	21.7194
2893.01	21.7085
2905.65	19.8082
2918.3	26.1237
2930.95	24.3852
2943.6	26.936
2956.25	31.9982
2968.9	26.1309
2981.55	23.1481
2994.2	20.3199
3006.85	16.4016
3019.49	20.1547
3032.14	20.1228
3044.79	17.9245
3057.44	18.9366
3070.09	20.4624
3082.74	21.6123
3095.39	18.4965
3108.04	18.8372
3120.68	20.1799
3133.33	21.9153
3145.98	21.7065
3158.63	19.6758
3171.28	19.6199
3183.93	21.0976
3196.58	22.22
3209.23	21.2293
3221.875	21.4165
3234.52	21.4319
3247.17	22.4366
3259.82	24.0043
3272.47	20.7321
3285.12	22.9868
3297.77	21.7001
3310.42	24.153
3323.07	22.266
3335.71	24.6897
3348.36	21.1127
3361.01	24.1934
3373.66	21.7271
3386.31	23.7919
3398.96	22.5711
3411.61	27.8752
3424.26	29.7627
3436.9	28.4324
3449.55	25.7984
3462.2	23.8463
3474.85	26.669
3487.5	28.5893
3500.15	24.3391
3512.8	28.6358
3525.45	25.4615
3538.1	27.3981
3550.74	26.1433
3563.39	27.7887
3576.04	29.1092
3588.69	30.4183
3601.34	26.4863
3613.99	27.6657
3626.64	27.7937
3639.29	30.4966
3651.93	25.3913
3664.58	26.2578
3677.23	30.7616
3689.88	26.3645
3700	28.9706

File: SGbulk_5.txt
300	37.8167
312.649	45.8021
325.298	50.7532
337.946	61.7119
350.595	61.5038
363.244	64.1791
375.893	64.1417
388.542	62.111
401.19	59.5015
413.839	57.5607
426.488	68.8194
439.137	82.2461
451.786	94.556
464.435	113.636
477.083	118.068
489.732	119.783
502.381	85.0209
515.03	58.5769
527.679	35.0793
540.327	17.494
552.976	18.1097
565.625	15.2061
578.274	19.2365
590.923	16.8125
603.571	15.6943
616.22	12.2686
628.869	16.4376
641.518	14.9671
654.167	13.0157
666.815	15.1031
679.464	10.018
692.113	13.998
704.762	10
717.411	13.747
730.06	13.556
742.708	12.4886
755.357	13.4941
768.006	15.3002
780.655	12.0209
793.304	14.4477
805.952	15.994
818.601	14.1488
831.25	18.1691
843.899	16.6314
856.548	14.9004
869.196	20.8635
881.845	17.52
894.494	22.5132
907.143	17.9133
919.792	14.887
932.44	11.103
945.089	9.43651
957.738	10.5024
970.387	8.50576
983.036	2.12726
995.685	8.60527
1008.33	8.38739
1020.98	2.86776
1033.63	3.56795
1046.28	-0.279715
1058.93	0.66607
1071.58	-0.188822
1084.23	-2.0772
1096.875	-2.67473
1109.52	-6.15068
1122.17	-3.23856
1134.82	-4.55583
1147.47	-6.67515
1160.12	-5.7535
1172.77	-6.42003
1185.42	-3.87821
1198.07	-6.53047
1210.71	-5.86553
1223.36	-7.33211
1236.01	-4.93341
1248.66	-5
1261.31	-4.09457
1273.96	-2.90056
1286.61	-2.88234
1299.26	-6.66851
1311.9	-4.88372
1324.55	-1.48396
1337.2	2.95434
1349.85	-2.08229
1362.5	-1.49654
1375.15	-2.2
1387.8	-1.76645
1400.45	-5.4002
1413.1	-5.03136
1425.74	-3.94244
1438.39	-6.10471
1451.04	-4.05303
1463.69	-4.87137
1476.34	-8.47906
1488.99	-4.30969
1501.64	-6.18102
1514.29	-5.22811
1526.93	-5.9695
1539.58	-3.09013
1552.23	-3.46682
1564.88	-1.92588
1577.53	-4.03173
1590.18	-6.00134
1602.83	-1.89447
1615.48	-5.6252
1628.125	-2.12296
1640.77	-5.46146
1653.42	-4.02528
1666.07	-5.99775
1678.72	-7.57539
1691.37	-7.02478
1704.02	-9.36067
1716.67	-5.42211
1729.32	-4.97708
1741.96	-7.92643
1754.61	-7.93216
1767.26	-3.54639
1779.91	-4.6557
1792.56	-5.18398
1805.21	-5.7161
1817.86	-5.48337
1830.51	-3.25634
1843.15	-6.6
1855.8	-6.45383
1868.45	-7.40992
1881.1	-7.49033
1893.75	-7.27665
1906.4	-8.63153
1919.05	-6.07
1931.7	-5.25419
1944.35	-6.8
1956.99	-7.0019
1969.64	-5.03049
1982.29	-6.66816
1994.94	-6.98011
2007.59	-4.54161
2020.24	-6.84764
2032.89	-4.54403
2045.54	-6.20452
2058.18	-7.18739
2070.83	-5.11784
2083.48	-7.27079
2096.13	-7.09785
2108.78	-8.07693
2121.43	-4.24296
2134.08	-5.25758
2146.73	-4.73668
2159.375	-5.74719
2172.02	-6.70719
2184.67	-8.32605
2197.32	-7.03603
2209.97	-7.10248
2222.62	-6.37247
2235.27	-4.87637
2247.92	-6.38676
2260.57	-2.46833
2273.21	-5.05395
2285.86	-6.0501
2298.51	-5.38714
2311.16	-4.42208
2323.81	-4.31885
2336.46	3.03369
2349.11	-2.60952
2361.76	-4.96796
2374.4	-3.3197
2387.05	-3.09351
2399.7	-1.70593
2412.35	0.00931154
2425	9.20006
2437.65	28.0732
2450.3	22.6276
2462.95	7.69406
2475.6	2.84976
2488.24	4.05137
2500.89	1.37438
2513.54	2.08861
2526.19	3.78993
2538.84	3.49507
2551.49	2.87782
2564.14	1.59439
2576.79	-1.25463
2589.43	0.85816
2602.08	1.22294
2614.73	1.80636
2627.38	-0.0206679
2640.03	2.66075
2652.68	-0.117689
2665.33	3.42738
2677.98	0.101186
2690.625	1.60466
2703.27	3.80728
2715.92	0.870301
2728.57	2.23027
2741.22	1.89323
2753.87	0.756824
2766.52	1.67335
2779.17	1.25326
2791.82	1.9523
2804.46	3.59549
2817.11	2.76975
2829.76	1.46009
2842.41	3.4396
2855.06	1.77297
2867.71	4.85157
2880.36	5.00823
2893.01	4.54313
2905.65	5.9272
2918.3	4.18198
2930.95	5.08786
2943.6	6.62573
2956.25	7.76491
2968.9	8.10916
2981.55	2.17594
2994.2	2.58882
3006.85	2.02911
3019.49	2.57269
3032.14	2.64864
3044.79	2.18517
3057.44	3.61962
3070.09	3.43745
3082.74	0.793403
3095.39	3.2148
3108.04	0.0737338
3120.68	2.24584
3133.33	2.77059
3145.98	1.91106
3158.63	3.07897
3171.28	0.418205
3183.93	5.37355
3196.58	1.73751
3209.23	4.44933
3221.875	2.84025
3234.52	1.17074
3247.17	0.0927317
3259.82	3.07848
3272.47	1.05289
3285.12	7.06533
3297.77	2.74015
3310.42	3.47498
3323.07	4.79642
3335.71	5.30397
3348.36	1.6815
3361.01	4.38464
3373.66	3.20711
3386.31	3.66512
3398.96	4.83483
3411.61	7.97127
3424.26	4.83941
3436.9	5.03276
3449.55	5.23483
3462.2	9.70424
3474.85	4.70698
3487.5	6.77593
3500.15	7.41015
3512.8	4.88195
3525.45	5.40343
3538.1	4.28223
3550.74	7.49917
3563.39	3.96238
3576.04	6.84396
3588.69	6.75686
3601.34	5.42092
3613.99	7.3887
3626.64	7.84302
3639.29	4.24054
3651.93	7.00359
3664.58	8.97691
3677.23	6.44306
3689.88	9.19258
3700	9.67893