Folder: Graphs/Example Data/Raman/Kara/12-20-10/Si-Graphene/7bulk (part 2)

File: SGbulk_6.txt
300	103.325
312.649	120.818
325.298	131.671
337.946	147.243
350.595	148.156
363.244	144.507
375.893	155.133
388.542	153.862
401.19	138.815
413.839	134.883
426.488	154.714
439.137	183.756
451.786	213.574
464.435	253.246
477.083	251.074
489.732	269.73
502.381	196.975
515.03	133.579
527.679	92.0865
540.327	65.0588
552.976	47.3986
565.625	51.3497
578.274	55.6505
590.923	60.0186
603.571	54.4485
616.22	48.883
628.869	49.8666
641.518	50.1644
654.167	51.9434
666.815	53.2546
679.464	44.3867
692.113	46.3553
704.762	48.1766
717.411	44.6241
730.06	49.4238
742.708	50.6546
755.357	48.4477
768.006	51.777
780.655	52.2256
793.304	54.0752
805.952	57.3203
818.601	52.9542
831.25	58.0804
843.899	58.2756
856.548	66.251
869.196	60.1167
881.845	61.2478
894.494	57.0387
907.143	48.8334
919.792	50.2766
932.44	46.4356
945.089	46.4518
957.738	42.5717
970.387	35.8815
983.036	33.1
995.685	31.4969
1008.33	30.8504
1020.98	27.6097
1033.63	27.0962
1046.28	27
1058.93	20.3356
1071.58	20.3399
1084.23	18.4
1096.875	11.841
1109.52	11.3605
1122.17	12.2449
1134.82	6.15417
1147.47	11.1816
1160.12	14.4896
1172.77	7.3725
1185.42	5.18865
1198.07	2.76224
1210.71	8.95745
1223.36	8.21463
1236.01	12.2681
1248.66	10.2044
1261.31	11.1587
1273.96	7.98596
1286.61	11.3025
1299.26	10.4255
1311.9	13.2116
1324.55	15.9674
1337.2	15.3543
1349.85	14.824
1362.5	20.6951
1375.15	13.7923
1387.8	10.8208
1400.45	11.2119
1413.1	8.32613
1425.74	12.1698
1438.39	6.10471
1451.04	10.0409
1463.69	12.0692
1476.34	10.3115
1488.99	8.30108
1501.64	8.26672
1514.29	5.16584
1526.93	9.39468
1539.58	7.6957
1552.23	12.5555
1564.88	13.3585
1577.53	13.7894
1590.18	11.804
1602.83	13.8736
1615.48	14.7436
1628.125	12.923
1640.77	8.8581
1653.42	8.71153
1666.07	7.8045
1678.72	4.32513
1691.37	8.01594
1704.02	3.89972
1716.67	9.24472
1729.32	4.74097
1741.96	5.73791
1754.61	7.3193
1767.26	9.37553
1779.91	6.77071
1792.56	4.6941
1805.21	7.22465
1817.86	5.94146
1830.51	3.26615
1843.15	4.62357
1855.8	6.754
1868.45	4.32011
1881.1	2.4
1893.75	8.44794
1906.4	6.72484
1919.05	4.51
1931.7	4.43613
1944.35	7.09279
1956.99	5.11867
1969.64	4.73902
1982.29	4.29095
1994.94	5.06441
2007.59	3.49175
2020.24	3.75126
2032.89	4.57314
2045.54	2.77627
2058.18	4.51477
2070.83	2.17341
2083.48	6.11825
2096.13	6.3612
2108.78	7.62106
2121.43	6.0954
2134.08	5.38742
2146.73	3.24483
2159.375	5.23284
2172.02	2.07245
2184.67	5.60531
2197.32	6.58079
2209.97	7.02074
2222.62	6.21348
2235.27	6.51226
2247.92	5.79114
2260.57	2.8299
2273.21	3.96888
2285.86	7.48046
2298.51	4.8969
2311.16	7.43296
2323.81	8.14312
2336.46	23.3732
2349.11	7.30779
2361.76	12.9991
2374.4	12.023
2387.05	12.0305
2399.7	16.497
2412.35	22.7377
2425	30.8058
2437.65	75.7281
2450.3	64.98
2462.95	31.1636
2475.6	28.4281
2488.24	23.4522
2500.89	21.9311
2513.54	21.9403
2526.19	23.7574
2538.84	22.2203
2551.49	19.7535
2564.14	19.8479
2576.79	13.9787
2589.43	14.5287
2602.08	16.6743
2614.73	14.4028
2627.38	13.536
2640.03	19.8121
2652.68	15.4024
2665.33	17.567
2677.98	20.2967
2690.625	18.5979
2703.27	21.2028
2715.92	18.6717
2728.57	20.6096
2741.22	17.8745
2753.87	15.7846
2766.52	20.2587
2779.17	19.1816
2791.82	17.9118
2804.46	19.4673
2817.11	17.679
2829.76	15.8503
2842.41	21.4454
2855.06	19.8321
2867.71	22.9383
2880.36	16.5793
2893.01	20.2427
2905.65	23.383
2918.3	26.7502
2930.95	21.6475
2943.6	27.6461
2956.25	27.4248
2968.9	21.7611
2981.55	21.6676
2994.2	18.3898
3006.85	19.9977
3019.49	22.2051
3032.14	21.4887
3044.79	17.1907
3057.44	14.8708
3070.09	18.9037
3082.74	15.4151
3095.39	19.0623
3108.04	15.9581
3120.68	18.085
3133.33	18.9245
3145.98	19.9516
3158.63	17.1087
3171.28	16.4692
3183.93	21.8432
3196.58	26.4679
3209.23	20.4892
3221.875	19.3719
3234.52	22.1379
3247.17	22.0413
3259.82	24.0954
3272.47	22.698
3285.12	21.9508
3297.77	23.265
3310.42	23.4453
3323.07	22.2933
3335.71	19.9614
3348.36	22.1487
3361.01	20.3746
3373.66	26.8665
3386.31	19.7074
3398.96	23.9812
3411.61	19.8259
3424.26	23.7426
3436.9	25.0405
3449.55	28.6456
3462.2	19.3199
3474.85	29.3824
3487.5	27.7609
3500.15	30.1266
3512.8	22.7287
3525.45	24.0747
3538.1	23.9753
3550.74	25.4877
3563.39	24.4039
3576.04	26.2442
3588.69	21.1343
3601.34	26.0606
3613.99	24.2233
3626.64	31.3668
3639.29	31.9227
3651.93	26.748
3664.58	29.3248
3677.23	35.5368
3689.88	35.7674
3700	28.2558