Folder: Graphs/Example Data/Raman/Kara/12-20-10/Si-Graphene/8bulk

Note: README.md
# Graphs
A macOS app that manages the organization of data files and graphs them.

Licensed under the MIT licensing terms: https://opensource.org/licenses/MIT

Hildreth wrote the precursor to Graphs, then called GraphBase, during his Ph.D. to help manage the data he was collecting as part of his research on Metal-assisted Chemical Etching of Silicon.  He was becoming overwhelmed by the hundreds of data files he was collecting every week and was inspired by the Papers and iTunes applications on OS X (now macOS) to create an application that managed data.  GraphBase provided an easy template to create a parser, a simple UI to organize data into hiarchical folders, and leveraged the DataGraph framework (http://www.visualdatatools.com/DataGraph/Framework/) for graphing.  DataGraph (http://www.visualdatatools.com/DataGraph/) is an amazing 2D graphing application and you will need to purchase a DataGraph license from Visual Data Tools in order to use Graphs.

Graphs is a rewrite of GraphBase in Swift written by Connor and then re-written again by Hildreth that has been open sourced for use by all.  Please not that you will need a DataGraph license to create the graph templates used by the DataGraph framework underlying Graphs.  Hildreth plans to continue evolving this application.  The next plan improvements are: multithreading for import and parsing using the new Results type in Swift; and begin switching over to SwiftUI for the UI.  Long term, we hope to add support for data analysis and extraction.

# Overview
Graphs is a data management tool that allows you to store your raw data files in a text formate (CSV, tab delimited, etc.) and then have those files parsed and graphed when selected.  Graphs uses the DataGraph fromework 

To use Graphs, first you create an example graph, what we call a Graph Template, in DataGraph.  Format the graph the way you want it to look and make sure that the Data Columns are in the same order as the columns in your data.  Next, you  add your "Graph Template" to Graphs using either the Graph Template Inspector on the right side of Graphs using using the "+" sign on the bottom left of the application.  You can also drag-and-drop the file onto a folder in the Source List.  Once you add a Graph Template, you can assign it to be the default Graph Template for a folder and any sub-folders using the Folder Inspector.

The second step is to make a Paser using the Parser Inspector.  It might be helpful to have an example file already in Graphs (see Step 3) because you can use the Text Inspector to see what lines your Experimental Details, Header, and Data start at.  Add a Parse Template using the + sign in the Parse Inspector's table and give the Parse Template a name.  If your data has experimental details at the top, then select the checkbox and set the starting and ending lines for this information.  If your data has a Header, select the Header checkbox, give it starting and ending line numbers, and then select the type of s

File: SGbulk_1.txt
200	55.4959
212.718	43.1023
225.436	48.657
238.154	53.7383
250.872	62.7021
263.59	74.627
276.308	70.8921
289.026	88.0632
301.744	83.037
314.462	89.8628
327.18	81.5488
339.898	83.7563
352.616	85.0358
365.334	77.1442
378.052	85.7623
390.77	83.1491
403.488	82.2192
416.206	74.9336
428.924	90.447
441.642	113.115
454.36	140.458
467.078	153.126
479.797	161.822
492.515	152.068
505.233	104.39
517.951	67.07
530.669	41.8185
543.387	25.6604
556.105	25.4006
568.823	23.1724
581.541	21.5695
594.259	19.976
606.977	25.1839
619.695	24.6097
632.413	19.2184
645.131	22.1452
657.849	19.776
670.567	12.8438
683.285	16.7402
696.003	13.9473
708.721	15.5837
721.439	12.5352
734.157	19.899
746.875	18.8811
759.593	17.3086
772.311	12.1694
785.029	19.1355
797.747	21.738
810.465	26.1056
823.183	23.0272
835.901	25.1625
848.619	21.6715
861.337	25.9364
874.055	24.2091
886.773	18.9127
899.491	24.5552
912.209	19.3028
924.927	17.4373
937.645	21.8848
950.363	13.8
963.081	9.62097
975.799	11.192
988.517	7.49842
1001.24	8.58071
1013.95	7.2
1026.67	3.50035
1039.39	5.09878
1052.11	3.5327
1064.83	4.34103
1077.54	-0.847408
1090.26	-4.4658
1102.98	-1.53614
1115.7	-5.87327
1128.42	-2.2205
1141.13	-5.53242
1153.85	-4.78702
1166.57	-5.84188
1179.29	-5.28626
1192.01	-3.19997
1204.72	-6.78842
1217.44	-1.63821
1230.16	-6.81157
1242.88	-2.80045
1255.6	-3.55013
1268.31	-6.17582
1281.03	-3.13712
1293.75	-6.97845
1306.47	0.162448
1319.19	-1.75191
1331.9	-1.55386
1344.62	0.2
1357.34	-4.7689
1370.06	-2.20275
1382.78	-3.29135
1395.49	-6.37593
1408.21	-5.20449
1420.93	-5.35365
1433.65	-6.24272
1446.37	-7.87623
1459.08	-7.48316
1471.8	-5.91009
1484.52	-6.66809
1497.24	-6.80539
1509.96	-9.01342
1522.67	-5.11863
1535.39	-8.18523
1548.11	-5.20828
1560.83	-3.84303
1573.55	-6.75005
1586.26	-5.88682
1598.98	-5.51618
1611.7	-3.82817
1624.42	-5.0792
1637.14	-4.83716
1649.85	-11.3298
1662.57	-10.1308
1675.29	-9.16843
1688.01	-9.40696
1700.73	-7.53534
1713.44	-8.1138
1726.16	-8.83652
1738.88	-6.43322
1751.6	-8.03057
1764.32	-11.0085
1777.03	-7.39774
1789.75	-8.13649
1802.47	-7.61386
1815.19	-9.0301
1827.91	-9.68402
1840.625	-8.1031
1853.34	-7.8784
1866.06	-8.67763
1878.78	-11.7842
1891.5	-9.70556
1904.22	-10.4973
1916.93	-7.57988
1929.65	-7.66802
1942.37	-9.40829
1955.09	-13.4696
1967.81	-6.9817
1980.52	-9.10631
1993.24	-6.59714
2005.96	-9.29801
2018.68	-8.15257
2031.4	-7.75971
2044.11	-8.77891
2056.83	-8.87139
2069.55	-10.4261
2082.27	-9.60124
2094.99	-6.47876
2107.7	-11.2098
2120.42	-8.37262
2133.14	-7.21754
2145.86	-7.43799
2158.58	-9.2671
2171.29	-8.23729
2184.01	-8.22738
2196.73	-7.92198
2209.45	-8.63542
2222.17	-8.41994
2234.88	-8.97379
2247.6	-5.52844
2260.32	-8.50212
2273.04	-8.57265
2285.76	-7.91098
2298.47	-5.83992
2311.19	-7.25416
2323.91	-5.88721
2336.63	1.87808
2349.35	-6.61867
2362.06	-6.66484
2374.78	-3.88599
2387.5	-3.45492
2400.22	-6.20834
2412.94	-5.06675
2425.65	-1.21068
2438.37	5.64165
2451.09	1.95342
2463.81	-0.523461
2476.53	-3.21432
2489.24	-4.45946
2501.96	-1.69793
2514.68	-1.15414
2527.4	-1.07173
2540.12	-1.36016
2552.83	-2.37588
2565.55	-2.69847
2578.27	-0.879244
2590.99	-2.76244
2603.71	-1.95802
2616.42	-2.77556
2629.14	-1.10159
2641.86	-2.50731
2654.58	-2.92664
2667.3	1.4258
2680.01	-2.83341
2692.73	0.971408
2705.45	1.59592
2718.17	-1.08618
2730.89	0.42144
2743.6	-1.0853
2756.32	-0.99882
2769.04	-0.341367
2781.76	1.08716
2794.48	0.248259
2807.19	0.489937
2819.91	4.29805
2832.63	1.99043
2845.35	1.05369
2858.07	2.12593
2870.78	1.63474
2883.5	1.41558
2896.22	4.58942
2908.94	4.28921
2921.66	-1.17859
2934.375	3.72609
2947.09	1.61546
2959.81	-1.04875
2972.53	0.397801
2985.25	2.71946
2997.97	-2.34207
3010.68	-0.134663
3023.4	0.473174
3036.12	0.721489
3048.84	2.62583
3061.56	1.79333
3074.27	5.03906
3086.99	0.456676
3099.71	1.92518
3112.43	-0.288491
3125.15	-0.0411682
3137.86	0.751966
3150.58	-0.0185237
3163.3	3.8755
3176.02	4.30092
3188.74	0.708814
3201.45	5.36872
3214.17	1.55421
3226.89	5.2601
3239.61	2.30465
3252.33	1.44416
3265.04	2.54482
3277.76	3.07823
3290.48	4.84115
3303.2	3.61958
3315.92	-0.886667
3328.63	3.68391
3341.35	5.00022
3354.07	1.33379
3366.79	5.92515
3379.51	3.3359
3392.22	1.76049
3404.94	7.75604
3417.66	1.40921
3430.38	2.57359
3443.1	1.75323
3455.81	10.9449
3468.53	5.42459
3481.25	6.33531
3493.97	3.05994
3506.69	2.46615
3519.4	0.388614
3532.12	4.10046
3544.84	9.71786
3557.56	5.82738
3570.28	3.44993
3582.99	6.35498
3595.71	7.48496
3608.43	4.50285
3621.15	6.51936
3633.87	6.4039
3646.58	6.00704
3659.3	8.89315
3672.02	4.92697
3684.74	6.74571
3697.46	3.72462
3700	6.80221

File: SGbulk_2.txt
100	61.3971
112.793	83.306
125.586	98.712
138.38	120.593
151.173	109.093
163.966	108.162
176.759	90.7965
189.552	95.2582
202.345	67.1788
215.139	53.0278
227.932	50.0739
240.725	54.7948
253.518	51.2465
266.311	66.6049
279.104	72.943
291.898	80.2362
304.691	86.1558
317.484	82.3215
330.277	76.6757
343.07	80.3017
355.864	82.5837
368.657	77.2694
381.45	78.8343
394.243	74.0631
407.036	67.6181
419.829	78.5001
432.623	102.805
445.416	120.749
458.209	140.705
471.002	161.125
483.795	162.407
496.589	128.092
509.382	93.2394
522.175	61.3115
534.968	33.686
547.761	25.742
560.554	22.081
573.348	22.6317
586.141	17.0874
598.934	19.058
611.727	19.1737
624.52	20.28
637.313	18.6462
650.107	17.6765
662.9	12.2212
675.693	15.4696
688.486	12.0175
701.279	14.6887
714.073	12.4082
726.866	15.3717
739.659	15.0716
752.452	14.6677
765.245	19.9197
778.038	14.647
790.832	14.7728
803.625	14.4601
816.418	18.0254
829.211	18.2215
842.004	23.3869
854.797	22.9137
867.591	25.171
880.384	20.5607
893.177	24.0367
905.97	17.2052
918.763	16.6259
931.557	13.2267
944.35	15.2
957.143	7.7136
969.936	9.17256
982.729	10.4
995.522	4.14535
1008.32	5.74092
1021.11	5.54011
1033.9	4.37672
1046.7	-2.75288
1059.49	1.64383
1072.28	-3.77585
1085.07	-2.64149
1097.87	-6.31303
1110.66	-5.35242
1123.45	-6.61425
1136.25	-7.41351
1149.04	-9.15048
1161.83	-8.56509
1174.63	-7.87538
1187.42	-9.72729
1200.21	-6.40491
1213.01	-9.02241
1225.8	-6.47823
1238.59	-7.07548
1251.39	-9.36544
1264.18	-9.5667
1276.97	-10.3261
1289.77	-10.5039
1302.56	-5.90205
1315.35	-6.21156
1328.15	-5.8086
1340.94	-6.2
1353.73	-1.1669
1366.52	-9.1047
1379.32	-7.51218
1392.11	-8.20502
1404.9	-7.97392
1417.7	-8.23418
1430.49	-10.6803
1443.28	-6.80915
1456.08	-11.1576
1468.87	-9.37179
1481.66	-9.76118
1494.46	-11.9926
1507.25	-10.0466
1520.04	-10.2578
1532.84	-9.74226
1545.63	-8.27677
1558.42	-5.09976
1571.22	-11.5367
1584.01	-4.59895
1596.8	-9.15245
1609.59	-6.6789
1622.39	-11.7696
1635.18	-10.6043
1647.97	-11.3433
1660.77	-10.0261
1673.56	-10.37
1686.35	-12.4366
1699.15	-9.69213
1711.94	-10.8308
1724.73	-10.8132
1737.53	-9.48305
1750.32	-12.173
1763.11	-8.7688
1775.91	-11.7372
1788.7	-10.4968
1801.49	-13.9791
1814.29	-10.6
1827.08	-13.925
1839.87	-10.9831
1852.67	-11.8241
1865.46	-13.3648
1878.25	-12.4555
1891.04	-13.6517
1903.84	-13.2003
1916.63	-12.4662
1929.42	-11.9627
1942.22	-13.0894
1955.01	-10.5332
1967.8	-14.8596
1980.6	-12.6044
1993.39	-10.9615
2006.18	-12.4604
2018.98	-13.2361
2031.77	-10.0594
2044.56	-11.0185
2057.36	-9.22648
2070.15	-15.7335
2082.94	-12.1039
2095.74	-9.74798
2108.53	-11.6544
2121.32	-12.8587
2134.12	-10.4448
2146.91	-9.65743
2159.7	-12.1807
2172.49	-11.4801
2185.29	-11.8698
2198.08	-10.8532
2210.87	-10.7482
2223.67	-8.97236
2236.46	-9.53889
2249.25	-9.81223
2262.05	-10.5119
2274.84	-8.61705
2287.63	-7.65675
2300.43	-9.17866
2313.22	-7.88895
2326.01	-8.6628
2338.81	0.52797
2351.6	-7.18179
2364.39	-5.87165
2377.19	-7.82906
2389.98	-7.61132
2402.77	-3.53592
2415.56	-4.63942
2428.36	-2.38042
2441.15	7.44953
2453.94	0.131791
2466.74	-3.91025
2479.53	-2.29037
2492.32	-5.47537
2505.12	-5.92768
2517.91	-4.68422
2530.7	-3.74633
2543.5	-2.34312
2556.29	-5.39515
2569.08	-2.46631
2581.88	-5.11826
2594.67	-3.71196
2607.46	-2.01196
2620.26	-3.96118
2633.05	-0.346771
2645.84	-2.73228
2658.64	-1.60573
2671.43	-2.93307
2684.22	-0.0974585
2697.01	-2.69097
2709.81	-2.64593
2722.6	-1.86993
2735.39	-2.52192
2748.19	-1.46303
2760.98	-2.50145
2773.77	-2.06137
2786.57	-1.79909
2799.36	-1.77439
2812.15	-1.8876
2824.95	-3.65024
2837.74	-5.19962
2850.53	2.69706
2863.33	0.347676
2876.12	-1.76713
2888.91	-4.20585
2901.71	-0.499016
2914.5	-0.41382
2927.29	-0.504669
2940.09	0.367097
2952.88	-0.083087
2965.67	0.737174
2978.46	-0.567065
2991.26	-4.52945
3004.05	1.66476
3016.84	-1.09516
3029.64	0.2704
3042.43	-2.8028
3055.22	-1.87855
3068.02	-1.34173
3080.81	-0.274852
3093.6	-1.2582
3106.4	-2.70811
3119.19	-1.57292
3131.98	2.20249
3144.78	2.15705
3157.57	-0.352444
3170.36	-1.32942
3183.16	2.60551
3195.95	1.92969
3208.74	3.41594
3221.54	0.407746
3234.33	0.619872
3247.12	1.01999
3259.91	-2.71018
3272.71	2.39633
3285.5	-3.76104
3298.29	-0.781066
3311.09	0.288805
3323.88	5.98502
3336.67	-0.130143
3349.47	-2.72615
3362.26	0.26681
3375.05	1.76358
3387.85	4.62442
3400.64	6.52872
3413.43	2.19982
3426.23	3.9708
3439.02	1.57486
3451.81	1.27279
3464.61	1.15417
3477.4	2.98901
3490.19	5.95716
3502.99	1.82074
3515.78	4.62722
3528.57	2.66476
3541.36	4.21566
3554.16	2.07696
3566.95	3.54837
3579.74	2.98545
3592.54	2.29728
3605.33	3.22359
3618.12	-1.27432
3630.92	3.90796
3643.71	2.33238
3656.5	10.4554
3669.3	3.8115
3682.09	5.71425
3694.88	6.5604
3700	6.28541

File: SGbulk_3.txt
100	139.789
112.793	181.756
125.586	225.025
138.38	258.184
151.173	245.629
163.966	234.005
176.759	225.365
189.552	195.005
202.345	167.586
215.139	115.897
227.932	121.518
240.725	133.436
253.518	147.734
266.311	161.578
279.104	167.979
291.898	174.564
304.691	185.608
317.484	182.776
330.277	184.044
343.07	174.299
355.864	180.158
368.657	169.395
381.45	192.392
394.243	174.352
407.036	166.081
419.829	178.569
432.623	209.569
445.416	252.394
458.209	312.51
471.002	348.734
483.795	346.756
496.589	298.279
509.382	206.295
522.175	134.849
534.968	93.1254
547.761	64.2538
560.554	67.6645
573.348	60.2891
586.141	58.3076
598.934	70.2321
611.727	58.7869
624.52	60.28
637.313	54.4877
650.107	56.81
662.9	49.1418
675.693	52.3702
688.486	45.8771
701.279	49.0698
714.073	50.4022
726.866	50.3429
739.659	53.8626
752.452	57.2803
765.245	60.0508
778.038	56.5666
790.832	57.1365
803.625	61.8368
816.418	58.2234
829.211	61.7542
842.004	63.4681
854.797	68.0796
867.591	65.5782
880.384	65.9469
893.177	62.9265
905.97	65.0265
918.763	58.6026
931.557	53.2715
944.35	55.1637
957.143	45.2043
969.936	44.7576
982.729	43.659
995.522	33.6164
1008.32	33.2262
1021.11	30.2647
1033.9	26.6029
1046.7	20.7278
1059.49	22.9744
1072.28	15.0528
1085.07	14
1097.87	12.5357
1110.66	13.6257
1123.45	9.47038
1136.25	6.94137
1149.04	5.7101
1161.83	6.90444
1174.63	4.85364
1187.42	3.74548
1200.21	8.55167
1213.01	5.6236
1225.8	7.48052
1238.59	5.45392
1251.39	7.68317
1264.18	6.10739
1276.97	5.47608
1289.77	7.88031
1302.56	9.29795
1315.35	14.2137
1328.15	13.2373
1340.94	13.9883
1353.73	13.2975
1366.52	14.0295
1379.32	14.8015
1392.11	12.4405
1404.9	4.74239
1417.7	6.13579
1430.49	4.4718
1443.28	0.0672768
1456.08	6.34542
1468.87	5.89979
1481.66	5.0298
1494.46	4.65644
1507.25	3.43435
1520.04	-4.02028
1532.84	4.45495
1545.63	3.77252
1558.42	6.07845
1571.22	7.64833
1584.01	9.50685
1596.8	8.03448
1609.59	4.30339
1622.39	4.63941
1635.18	1.06309
1647.97	-3.52046
1660.77	3.12658
1673.56	-3.32271
1686.35	-2.87321
1699.15	-2.95959
1711.94	-3.40517
1724.73	0.709751
1737.53	0.538805
1750.32	-1.0486
1763.11	0.121113
1775.91	1.07374
1788.7	1.67928
1801.49	-2.96047
1814.29	-0.866166
1827.08	-5.704
1839.87	-5.71199
1852.67	-7.01741
1865.46	-2.56628
1878.25	-1.71098
1891.04	-3.06068
1903.84	-3.48233
1916.63	-0.73124
1929.42	-0.879937
1942.22	-0.0730685
1955.01	2.4993
1967.8	0.299837
1980.6	-3.28037
1993.39	0.362356
2006.18	0.477916
2018.98	-2.82835
2031.77	1.02683
2044.56	-0.671971
2057.36	-1.06699
2070.15	-4.74502
2082.94	-2.13035
2095.74	-0.6428
2108.53	-3.32911
2121.32	2.01119
2134.12	-3.44645
2146.91	-1.46907
2159.7	1.42821
2172.49	-0.962425
2185.29	-2.49006
2198.08	0.205217
2210.87	-0.746076
2223.67	-0.489701
2236.46	-1.42114
2249.25	0.53015
2262.05	2.29744
2274.84	0.833835
2287.63	1.35294
2300.43	1.57133
2313.22	4.60192
2326.01	5.25904
2338.81	19.8605
2351.6	3.94062
2364.39	4.38055
2377.19	0.0259944
2389.98	4.41275
2402.77	8.415
2415.56	8.70735
2428.36	15.2698
2441.15	29.794
2453.94	19.1188
2466.74	11.1838
2479.53	9.31032
2492.32	10.2169
2505.12	7.3274
2517.91	9.24674
2530.7	13.4314
2543.5	10.9216
2556.29	10.1055
2569.08	11.1305
2581.88	8.90593
2594.67	7.70766
2607.46	10.9275
2620.26	11.3851
2633.05	10.9799
2645.84	9.06503
2658.64	10.7647
2671.43	10.628
2684.22	12.7597
2697.01	7.36584
2709.81	11.3681
2722.6	12.3755
2735.39	15.0084
2748.19	14.0852
2760.98	11.7513
2773.77	12.0062
2786.57	12.9116
2799.36	16.4699
2812.15	12.543
2824.95	17.191
2837.74	11.9624
2850.53	14.2895
2863.33	11.1802
2876.12	12.5574
2888.91	12.759
2901.71	12.7368
2914.5	16.4161
2927.29	15.9769
2940.09	16.1242
2952.88	11.7822
2965.67	14.3355
2978.46	16.6711
2991.26	15.9893
3004.05	16.6854
3016.84	16.6611
3029.64	15.747
3042.43	10.8569
3055.22	12.7216
3068.02	15.3247
3080.81	14.6044
3093.6	16.7181
3106.4	16.7824
3119.19	14.234
3131.98	13.1401
3144.78	11.4023
3157.57	17.7827
3170.36	14.2428
3183.16	20.2752
3195.95	18.5197
3208.74	14.5512
3221.54	18.7798
3234.33	16.5225
3247.12	19.5544
3259.91	16.735
3272.71	18.8453
3285.5	19.2917
3298.29	19.8855
3311.09	18.8701
3323.88	16.1571
3336.67	20.1862
3349.47	16.282
3362.26	19.9439
3375.05	19.4897
3387.85	19.2291
3400.64	18.1899
3413.43	20.2958
3426.23	20.388
3439.02	20.1535
3451.81	18.3853
3464.61	21.631
3477.4	19.7316
3490.19	21.0967
3502.99	19.0463
3515.78	21.2146
3528.57	21.0043
3541.36	22.9402
3554.16	22.1624
3566.95	23.7855
3579.74	24.7756
3592.54	20.1789
3605.33	23.4747
3618.12	22.0696
3630.92	26.6757
3643.71	25.2344
3656.5	27.5114
3669.3	20.0436
3682.09	28.5299
3694.88	27.8146
3700	28.61

File: SGbulk_4.txt
100	226.877
112.793	287.725
125.586	355.549
138.38	385.762
151.173	365.367
163.966	359.766
176.759	336.668
189.552	307.204
202.345	249.904
215.139	185.862
227.932	180.482
240.725	210.834
253.518	223.647
266.311	244.792
279.104	256.302
291.898	276.103
304.691	288.543
317.484	284.069
330.277	285.512
343.07	287.602
355.864	277.517
368.657	286.703
381.45	280.237
394.243	276.744
407.036	268.202
419.829	280.632
432.623	322.718
445.416	402.76
458.209	467.141
471.002	528.875
483.795	508.183
496.589	436.018
509.382	335.699
522.175	216.223
534.968	148.626
547.761	118.751
560.554	106.865
573.348	100.2
586.141	103.286
598.934	100.34
611.727	101.469
624.52	88.44
637.313	92.4955
650.107	90.8496
662.9	95.9233
675.693	83.0633
688.486	90.4351
701.279	84.8019
714.073	81.4125
726.866	85.4554
739.659	89.409
752.452	88.6102
765.245	97.3918
778.038	91.4157
790.832	101.904
803.625	102.21
816.418	105.75
829.211	106.646
842.004	113.337
854.797	107.914
867.591	109.797
880.384	107.815
893.177	103.326
905.97	108.761
918.763	96.2623
931.557	98.3418
944.35	91.2988
957.143	90.3542
969.936	78.3863
982.729	75.8955
995.522	60.6897
1008.32	61.3432
1021.11	55.4969
1033.9	49.8116
1046.7	50.5036
1059.49	49.3141
1072.28	41.2136
1085.07	32.1679
1097.87	31.4991
1110.66	31.6126
1123.45	24.4347
1136.25	28.2721
1149.04	21.5743
1161.83	21.7227
1174.63	21.7227
1187.42	21.4363
1200.21	18.7499
1213.01	17.6348
1225.8	20.5935
1238.59	28.6603
1251.39	17.1168
1264.18	23.7887
1276.97	21.5087
1289.77	21.1756
1302.56	24.4735
1315.35	28.0021
1328.15	24.086
1340.94	34.5921
1353.73	31.1949
1366.52	35.4268
1379.32	25.8406
1392.11	28.737
1404.9	20.65
1417.7	21.8259
1430.49	16.1521
1443.28	20.9414
1456.08	18.8001
1468.87	21.1996
1481.66	16.395
1494.46	18.1546
1507.25	15.6855
1520.04	17.8138
1532.84	19.0324
1545.63	10.569
1558.42	21.922
1571.22	20.835
1584.01	20.2984
1596.8	20.9902
1609.59	25.9646
1622.39	20.3302
1635.18	11.6717
1647.97	9.25848
1660.77	11.9246
1673.56	6.69179
1686.35	8.07255
1699.15	7.25173
1711.94	7.77441
1724.73	14.6069
1737.53	9.90384
1750.32	6.5514
1763.11	10.2826
1775.91	8.60726
1788.7	7.92709
1801.49	8.48142
1814.29	10.7028
1827.08	6.14869
1839.87	9.79323
1852.67	8.01908
1865.46	7.47791
1878.25	7.85783
1891.04	5.19544
1903.84	7.95268
1916.63	5.47975
1929.42	3.68668
1942.22	8.04426
1955.01	3.28189
1967.8	7.02193
1980.6	7.62685
1993.39	8.10668
2006.18	7.77097
2018.98	9.25707
2031.77	8.81669
2044.56	7.82286
2057.36	11.1594
2070.15	7.50151
2082.94	5.92046
2095.74	14.1784
2108.53	12.1716
2121.32	9.42628
2134.12	14.5761
2146.91	12.1229
2159.7	11.3442
2172.49	9.43901
2185.29	7.70261
2198.08	9.71217
2210.87	10.1574
2223.67	11.1001
2236.46	8.54561
2249.25	8.94932
2262.05	10.5434
2274.84	9.65229
2287.63	12.0284
2300.43	11.7688
2313.22	11.5428
2326.01	11.0156
2338.81	33.0509
2351.6	10.5176
2364.39	15.8431
2377.19	17.9981
2389.98	17.8283
2402.77	16.1344
2415.56	21.7392
2428.36	35.0542
2441.15	54.0155
2453.94	37.0312
2466.74	26.624
2479.53	23.0715
2492.32	23.6281
2505.12	22.8514
2517.91	25.2833
2530.7	27.6596
2543.5	20.8109
2556.29	24.6553
2569.08	25.0132
2581.88	20.8857
2594.67	23.3371
2607.46	21.5103
2620.26	24.802
2633.05	23.1917
2645.84	21.9326
2658.64	26.3843
2671.43	26.0865
2684.22	26.5683
2697.01	28.2772
2709.81	24.4603
2722.6	28.2152
2735.39	26.5662
2748.19	26.0798
2760.98	29.4849
2773.77	26.5322
2786.57	24.2187
2799.36	26.2726
2812.15	27.0005
2824.95	24.8055
2837.74	26.7304
2850.53	28.8112
2863.33	24.7455
2876.12	25.5262
2888.91	25.7155
2901.71	26.4769
2914.5	30.0728
2927.29	26.8633
2940.09	28.5725
2952.88	32.3499
2965.67	30.4516
2978.46	31.953
2991.26	29.8378
3004.05	25.0326
3016.84	27.3361
3029.64	28.8867
3042.43	27.4499
3055.22	26.4302
3068.02	27.6799
3080.81	29.631
3093.6	31.0867
3106.4	32.3493
3119.19	29.7944
3131.98	29.4039
3144.78	30.7416
3157.57	31.124
3170.36	33.6417
3183.16	32.5641
3195.95	31.7911
3208.74	33.2363
3221.54	32.1786
3234.33	33.9345
3247.12	31.8504
3259.91	36.0708
3272.71	30.2169
3285.5	36.8257
3298.29	33.5579
3311.09	38.0512
3323.88	35.3219
3336.67	33.7161
3349.47	36.2145
3362.26	38.6585
3375.05	36.3152
3387.85	39.3513
3400.64	41.5133
3413.43	37.4705
3426.23	42.4302
3439.02	41.5792
3451.81	42.0713
3464.61	41.5878
3477.4	39.3323
3490.19	45.9742
3502.99	43.9043
3515.78	39.2622
3528.57	46.6962
3541.36	44.3899
3554.16	39.8146
3566.95	46.5415
3579.74	35.6086
3592.54	42.6181
3605.33	47.321
3618.12	45.9902
3630.92	46.1378
3643.71	45.2416
3656.5	46.2768
3669.3	39.5131
3682.09	45.2605
3694.88	46.4444
3700	45.8251