Folder: Graphs/Example Data/Raman/CNT - TIM/Raytheon/Al foil/2010/01-04-10

Note: README.md
# Graphs
A macOS app that manages the organization of data files and graphs them.

Licensed under the MIT licensing terms: https://opensource.org/licenses/MIT

Hildreth wrote the precursor to Graphs, then called GraphBase, during his Ph.D. to help manage the data he was collecting as part of his research on Metal-assisted Chemical Etching of Silicon.  He was becoming overwhelmed by the hundreds of data files he was collecting every week and was inspired by the Papers and iTunes applications on OS X (now macOS) to create an application that managed data.  GraphBase provided an easy template to create a parser, a simple UI to organize data into hiarchical folders, and leveraged the DataGraph framework (http://www.visualdatatools.com/DataGraph/Framework/) for graphing.  DataGraph (http://www.visualdatatools.com/DataGraph/) is an amazing 2D graphing application and you will need to purchase a DataGraph license from Visual Data Tools in order to use Graphs.

Graphs is a rewrite of GraphBase in Swift written by Connor and then re-written again by Hildreth that has been open sourced for use by all.  Please not that you will need a DataGraph license to create the graph templates used by the DataGraph framework underlying Graphs.  Hildreth plans to continue evolving this application.  The next plan improvements are: multithreading for import and parsing using the new Results type in Swift; and begin switching over to SwiftUI for the UI.  Long term, we hope to add support for data analysis and extraction.

# Overview
Graphs is a data management tool that allows you to store your raw data files in a text formate (CSV, tab delimited, etc.) and then have those files parsed and graphed when selected.  Graphs uses the DataGraph fromework 

To use Graphs, first you create an example graph, what we call a Graph Template, in DataGraph.  Format the graph the way you want it to look and make sure that the Data Columns are in the same order as the columns in your data.  Next, you  add your "Graph Template" to Graphs using either the Graph Template Inspector on the right side of Graphs using using the "+" sign on the bottom left of the application.  You can also drag-and-drop the file onto a folder in the Source List.  Once you add a Graph Template, you can assign it to be the default Graph Template for a folder and any sub-folders using the Folder Inspector.

The second step is to make a Paser using the Parser Inspector.  It might be helpful to have an example file already in Graphs (see Step 3) because you can use the Text Inspector to see what lines your Experimental Details, Header, and Data start at.  Add a Parse Template using the + sign in the Parse Inspector's table and give the Parse Template a name.  If your data has experimental details at the top, then select the checkbox and set the starting and ending lines for this information.  If your data has a Header, select the Header checkbox, give it starting and ending line numbers, and then select the type of s

File: Al - B23 - top_2.txt
200	535.278
208.495	533.766
216.99	528.237
225.484	514.11
233.979	516.084
242.474	531.769
250.969	521.434
259.464	523.075
267.958	510.873
276.453	509.982
284.948	499.294
293.443	500.069
301.937	495.688
310.432	483.343
318.927	470.943
327.422	488.16
335.917	457.907
344.411	472.165
352.906	456.303
361.401	466.833
369.896	465.975
378.39	456.792
386.885	441.341
395.38	442.838
403.875	440.146
412.37	448.134
420.864	439.096
429.359	461.371
437.854	438.052
446.349	432.017
454.844	419.281
463.338	420.122
471.833	404.155
480.328	404.491
488.823	379.024
497.317	371.4
505.812	370.103
514.307	362.895
522.802	376.588
531.297	362.128
539.791	364.814
548.286	364.179
556.781	370.88
565.276	372.15
573.771	379.431
582.265	366.991
590.76	395.056
599.255	389.839
607.75	400.624
616.244	376.135
624.739	418.653
633.234	400.693
641.729	409.546
650.224	407.334
658.718	425.531
667.213	406.624
675.708	418.703
684.203	415.106
692.697	422.271
701.192	426.526
709.687	441.774
718.182	437.069
726.677	446.065
735.171	453.084
743.666	449.296
752.161	469.289
760.656	472.89
769.151	484.618
777.645	500.772
786.14	497.72
794.635	503.824
803.13	500.796
811.624	517.197
820.119	527.716
828.614	531.277
837.109	526.126
845.604	559.05
854.098	538.76
862.593	547.107
871.088	523.902
879.583	517.03
888.078	511.915
896.572	498.467
905.067	490.441
913.562	507.232
922.057	489.054
930.551	497.771
939.046	484.835
947.541	497.107
956.036	504.13
964.531	511.589
973.025	517.426
981.52	528.228
990.015	531.999
998.51	551.733
1007	593.12
1015.5	601.388
1023.99	635.415
1032.49	665.494
1040.98	695.527
1049.48	714.47
1057.97	730.652
1066.47	778.235
1074.96	791.807
1083.46	809.456
1091.95	865.456
1100.45	925.355
1108.94	926.494
1117.44	987.062
1125.93	1017.54
1134.43	1089.54
1142.92	1153.25
1151.42	1214.03
1159.91	1285.7
1168.41	1335.56
1176.9	1407.15
1185.39	1389.84
1193.89	1462.84
1202.38	1530.19
1210.88	1568
1219.37	1628.78
1227.87	1707.33
1236.36	1778.78
1244.86	1850.95
1253.35	2000.62
1261.85	2147.81
1270.34	2313.09
1278.84	2501.62
1287.33	2733.13
1295.83	3009.23
1304.32	3298.73
1312.82	3602.46
1321.31	3924.96
1329.81	4321.81
1338.3	4634.08
1346.8	4767.02
1355.29	4707.6
1363.79	4458.16
1372.28	4270.25
1380.77	3892.44
1389.27	3640.44
1397.76	3371.64
1406.26	3091.5
1414.75	2935.06
1423.25	2750.62
1431.74	2644.31
1440.24	2559.99
1448.73	2500.88
1457.23	2445.71
1465.72	2383.08
1474.22	2404.59
1482.71	2388.45
1491.21	2357.98
1499.7	2373.3
1508.2	2367.08
1516.69	2417.3
1525.19	2414.81
1533.68	2494.48
1542.18	2594.01
1550.67	2713.47
1559.17	2994.09
1567.66	3246.77
1576.16	3564.81
1584.65	3922.51
1593.14	4209.43
1601.64	4490.08
1610.13	4353.63
1618.63	3938.52
1627.12	3291.01
1635.62	2642.61
1644.11	2141.64
1652.61	1736.48
1661.1	1401.3
1669.6	1138.79
1678.09	911.035
1686.59	774.535
1695.08	653.3
1703.58	590.769
1712.07	547.041
1720.57	506.672
1729.06	469.368
1737.56	440.75
1746.05	411.216
1754.55	414.498
1763.04	391.249
1771.54	395.757
1780.03	381.224
1788.52	373.727
1797.02	368.279
1805.51	371.916
1814.01	374.076
1822.5	361.496
1831	356.54
1839.49	357.117
1847.99	345.849
1856.48	333.898
1864.98	358.942
1873.47	353.167
1881.97	355.447
1890.46	352.629
1898.96	364.245
1907.45	343.972
1915.95	361.922
1924.44	345.885
1932.94	350.5
1941.43	360.989
1949.93	354.467
1958.42	349.965
1966.92	345.03
1975.41	362.912
1983.9	356.846
1992.4	356.257
2000.89	358.564
2009.39	345.687
2017.88	357.274
2026.38	347.976
2034.87	345.836
2043.37	347.543
2051.86	358.324
2060.36	352.873
2068.85	361.322
2077.35	352.258
2085.84	357.569
2094.34	368.021
2100	367.569

File: Al - B23 - top_3.txt
200	129.787
206.534	133.42
213.067	145.361
219.601	144.025
226.135	137.094
232.669	139.365
239.202	138.374
245.736	129.232
252.27	129.475
258.803	131.598
265.337	133.746
271.871	125.283
278.404	123.666
284.938	117.051
291.472	118.638
298.005	114.531
304.539	116.425
311.073	115.171
317.607	102.41
324.14	105.102
330.674	114.058
337.208	106.284
343.741	90.0456
350.275	100.005
356.809	87.5725
363.342	100.888
369.876	92.8989
376.41	71.9698
382.944	84.8651
389.477	70.7332
396.011	75.7734
402.545	74.087
409.078	72.4449
415.612	62.5854
422.146	68.9476
428.68	67.9719
435.213	67.1586
441.747	50.7908
448.281	52.5214
454.814	45.9387
461.348	52.6753
467.882	43.5997
474.415	39.1458
480.949	28.975
487.483	19.5631
494.017	9.90672
500.55	16.851
507.084	7.5655
513.618	-2.52456
520.151	6.65752
526.685	0.0163335
533.219	-3.03938
539.752	-6.17832
546.286	5.711
552.82	-6.52364
559.354	-2.90738
565.887	-10.4238
572.421	11.5701
578.955	8.66156
585.488	12.5844
592.022	4.71615
598.556	1.18298
605.089	0.526555
611.623	-1.24881
618.157	3.85942
624.69	12.0707
631.224	21.6038
637.758	14.3774
644.292	11.4005
650.825	24.8173
657.359	14.3479
663.893	12.1455
670.426	9.31674
676.96	5.56043
683.494	10.8372
690.028	12.8712
696.561	5.69756
703.095	13.6106
709.629	10.2723
716.162	8.50315
722.696	11.7856
729.23	-2.03016
735.763	13.1738
742.297	32.849
748.831	25.8284
755.365	13.7837
761.898	21.942
768.432	9.64621
774.966	22.7169
781.499	17.172
788.033	32.5256
794.567	24.0736
801.1	39.5232
807.634	36.5768
814.168	38.3488
820.702	34.0888
827.235	32.7333
833.769	44.7539
840.303	44.4003
846.836	38.0669
853.37	59.4776
859.904	43.7915
866.437	33.352
872.971	27.8033
879.505	30.7412
886.039	33.9902
892.572	17.4902
899.106	14.6241
905.64	11.1213
912.173	14.716
918.707	15.8699
925.241	12.6272
931.774	8.59597
938.308	-5.49794
944.842	9.38417
951.375	-0.0602008
957.909	-5.82128
964.443	-0.0763464
970.977	-21.1115
977.51	-4.5295
984.044	-18.3994
990.578	-4.58142
997.111	-17.3438
1003.65	5.40921
1010.18	-7.59973
1016.71	6.03675
1023.25	9.11163
1029.78	3.53193
1036.31	4.24667
1042.85	8.26857
1049.38	8.93949
1055.91	3.58215
1062.45	14.4045
1068.98	4.01576
1075.52	-8.57215
1082.05	6.83233
1088.58	-1.50988
1095.12	12.5508
1101.65	6.42978
1108.18	12.4378
1114.72	19.2559
1121.25	31.3422
1127.79	26.1858
1134.32	50.9631
1140.85	42.7166
1147.39	78.8559
1153.92	99.823
1160.45	81.609
1166.99	115.023
1173.52	135.232
1180.06	116.336
1186.59	131.094
1193.12	127.926
1199.66	128.348
1206.19	136.061
1212.72	145.455
1219.26	166.378
1225.79	188.226
1232.32	224.766
1238.86	254.717
1245.39	262.71
1251.93	319.338
1258.46	364.842
1264.99	434.236
1271.53	497.394
1278.06	580.664
1284.59	636.975
1291.13	757.286
1297.66	864.31
1304.2	1012.54
1310.73	1125.52
1317.26	1302.1
1323.8	1439.76
1330.33	1573.69
1336.86	1684.46
1343.4	1737.47
1349.93	1751.16
1356.46	1673.07
1363	1575.33
1369.53	1454.06
1376.07	1285.4
1382.6	1100.24
1389.13	933.828
1395.67	795.864
1402.2	664.413
1408.73	546.806
1415.27	441.834
1421.8	365.733
1428.34	283.186
1434.87	224.564
1441.4	172.623
1447.94	122.616
1454.47	94.2651
1461	72.8402
1467.54	24.4392
1474.07	15.2379
1480.61	6.94015
1487.14	18.5506
1493.67	6.58121
1500.21	25.4998
1506.74	55.619
1513.27	131.881
1519.81	187.55
1526.34	238.602
1532.87	309.942
1539.41	414.142
1545.94	509.374
1552.48	650.968
1559.01	830.959
1565.54	960.598
1572.08	1155.05
1578.61	1437
1585.14	1652.05
1591.68	1917.66
1598.21	2110.91
1604.75	2150.85
1611.28	2072.17
1617.81	1881.21
1624.35	1606.02
1630.88	1249.86
1637.41	957.166
1643.95	731.172
1650.48	560.541
1657.02	389.475
1663.55	247.753
1670.08	142.358
1676.62	85.1344
1683.15	50.4632
1689.68	9.86971
1696.22	-6.30981
1702.75	-3.53987
1709.28	9.16529
1715.82	14.2725
1722.35	18.9921
1728.89	7.79398
1735.42	5.88119
1741.95	2.44881
1748.49	8.99512
1755.02	5.15607
1761.55	5.2943
1768.09	6.92031
1774.62	18.3568
1781.16	1.6925
1787.69	2.37592
1794.22	9.48005
1800.76	0.993144
1807.29	-1.2029
1813.82	13.9247
1820.36	13.3268
1826.89	-1.27039
1833.43	-1.25807
1839.96	1.06659
1846.49	-4.71503
1853.03	4.7726
1859.56	9.95833
1866.09	-6.37311
1872.63	-8.14363
1879.16	-13.0226
1885.69	-10.2745
1892.23	2.63121
1898.76	7.42387
1905.3	0.901291
1911.83	1.13844
1918.36	-3.97054
1924.9	7.40158
1931.43	-2.61429
1937.96	1.08965
1944.5	1.00764
1951.03	-3.18042
1957.57	4.58118
1964.1	2.71411
1970.63	0.713623
1977.17	7.18121
1983.7	-0.698807
1990.23	2.75098
1996.77	-4.40662
2003.3	15.577
2009.83	-1.58096
2016.37	7.05443
2022.9	6.04356
2029.44	9.34586
2035.97	15.9857
2042.5	12.1553
2049.04	4.61491
2055.57	11.0403
2062.1	7.21902
2068.64	2.89569
2075.17	9.69247
2081.71	10.7467
2088.24	14.3997
2094.77	11.5929
2100	10.3503

File: Al - B23 -bottom.txt
200	113.551
206.534	120.37
213.067	134.583
219.601	119.419
226.135	132.549
232.669	116.947
239.202	128.506
245.736	124.141
252.27	130.347
258.803	126.743
265.337	121.525
271.871	125.987
278.404	111.485
284.938	114.84
291.472	110.235
298.005	109.583
304.539	103.631
311.073	94.0719
317.607	95.0208
324.14	90.7216
330.674	85.4314
337.208	81.5144
343.741	85.7624
350.275	94.9994
356.809	76.4023
363.342	75.9075
369.876	80.2037
376.41	80.8241
382.944	71.3516
389.477	63.3005
396.011	69.6433
402.545	67.555
409.078	61.8673
415.612	55.0637
422.146	60.0733
428.68	60.4274
435.213	50.5633
441.747	56.3351
448.281	55.6602
454.814	40.8918
461.348	47.6031
467.882	39.9181
474.415	32.6294
480.949	29.3279
487.483	19.2177
494.017	10.8847
500.55	20.0413
507.084	4.58392
513.618	10.024
520.151	11.2633
526.685	7.67394
533.219	5.86173
539.752	9.98106
546.286	-1.75274
552.82	-0.184736
559.354	4.30667
565.887	0.113694
572.421	8.72046
578.955	4.27608
585.488	5.58618
592.022	-1.88914
598.556	6.17538
605.089	-5.99963
611.623	7.4332
618.157	14.0517
624.69	13.799
631.224	10.4175
637.758	6.5894
644.292	4.53427
650.825	-0.957735
657.359	10.3171
663.893	11.0861
670.426	15.3866
676.96	8.92607
683.494	2.49565
690.028	3.46623
696.561	9.93521
703.095	9.9541
709.629	2.56512
716.162	5.94738
722.696	12.7753
729.23	-5.1257
735.763	11.4126
742.297	3.00909
748.831	9.72883
755.365	20.876
761.898	16.3805
768.432	11.0761
774.966	12.5054
781.499	26.9383
788.033	18.5359
794.567	19.7316
801.1	28.2956
807.634	40.7179
814.168	30.6634
820.702	38.0371
827.235	35.9631
833.769	22.3502
840.303	40.5289
846.836	28.6495
853.37	39.3487
859.904	35.7239
866.437	27.1836
872.971	17.7597
879.505	20.7901
886.039	14.7082
892.572	17.2148
899.106	2.60282
905.64	0.349751
912.173	9.73101
918.707	1.74549
925.241	-23.4607
931.774	-6.81446
938.308	-1.8704
944.842	-11.3605
951.375	-4.93239
957.909	-10.6269
964.443	-8.44594
970.977	1.91506
977.51	-7.74716
984.044	-5.31098
990.578	-4.8767
997.111	7.52457
1003.65	12.4279
1010.18	6.00426
1016.71	8.46013
1023.25	-2.28822
1029.78	2.68617
1036.31	12.8984
1042.85	3.40974
1049.38	10.0341
1055.91	-2.72216
1062.45	15.7944
1068.98	-0.880714
1075.52	12.9161
1082.05	7.62199
1088.58	3.48919
1095.12	0.462802
1101.65	17.6501
1108.18	11.6594
1114.72	36.4767
1121.25	16.9257
1127.79	47.464
1134.32	59.9689
1140.85	70.7569
1147.39	91.7493
1153.92	119.571
1160.45	118.072
1166.99	124.408
1173.52	155.728
1180.06	154.094
1186.59	154.429
1193.12	142.448
1199.66	143.279
1206.19	162.938
1212.72	162.48
1219.26	188.08
1225.79	200.334
1232.32	214.229
1238.86	243.954
1245.39	269.471
1251.93	294.206
1258.46	346.376
1264.99	381.796
1271.53	431.63
1278.06	490.538
1284.59	588.8
1291.13	672.385
1297.66	746.991
1304.2	833.602
1310.73	949.215
1317.26	1068.43
1323.8	1189.51
1330.33	1279.23
1336.86	1344.46
1343.4	1366.62
1349.93	1344.17
1356.46	1331.59
1363	1228.99
1369.53	1120.4
1376.07	1019.9
1382.6	895.439
1389.13	762.24
1395.67	649.156
1402.2	545.567
1408.73	465.137
1415.27	371.58
1421.8	318.026
1428.34	254.5
1434.87	204.783
1441.4	149.459
1447.94	116.067
1454.47	96.7392
1461	68.115
1467.54	45.7338
1474.07	9.74865
1480.61	-0.156308
1487.14	20.8701
1493.67	3.90466
1500.21	-2.1001
1506.74	7.94376
1513.27	82.5538
1519.81	105.89
1526.34	159.673
1532.87	234.138
1539.41	323.342
1545.94	369.143
1552.48	494.161
1559.01	619.089
1565.54	748.864
1572.08	919.254
1578.61	1116.28
1585.14	1344.27
1591.68	1561.56
1598.21	1702.26
1604.75	1803.25
1611.28	1775.57
1617.81	1553
1624.35	1333.3
1630.88	1009.15
1637.41	760.509
1643.95	611.799
1650.48	445.34
1657.02	326.575
1663.55	227.901
1670.08	163.365
1676.62	98.9449
1683.15	46.0194
1689.68	17.556
1696.22	18.6654
1702.75	3.52277
1709.28	30.4338
1715.82	26.1821
1722.35	11.9899
1728.89	10.1928
1735.42	2.80607
1741.95	-10.3586
1748.49	-3.9713
1755.02	2.44793
1761.55	-8.69019
1768.09	-5.16241
1774.62	-9.16462
1781.16	-7.90901
1787.69	-2.76893
1794.22	3.34012
1800.76	-8.51111
1807.29	-4.39816
1813.82	-5.01488
1820.36	-6.55016
1826.89	1.77461
1833.43	-4.36214
1839.96	1.2197
1846.49	-13.7206
1853.03	-2.26869
1859.56	-1.54474
1866.09	-9.49043
1872.63	-24.0724
1879.16	-7.05783
1885.69	-3.30945
1892.23	-10.0518
1898.76	-8.79332
1905.3	-3.25193
1911.83	-3.51813
1918.36	-9.07503
1924.9	-17.4339
1931.43	-10.8208
1937.96	-2.22995
1944.5	-21.4105
1951.03	-4.1194
1957.57	-13.3046
1964.1	-16.8211
1970.63	-11.9028
1977.17	-6.13815
1983.7	-10.8497
1990.23	-20.5356
1996.77	-13.0558
2003.3	-9.58976
2009.83	-5.69233
2016.37	-3.78009
2022.9	-15.45
2029.44	-9.71885
2035.97	-5.18483
2042.5	1.00157
2049.04	-1.41758
2055.57	-12.4182
2062.1	4.33593
2068.64	-7.63954
2075.17	-9.00887
2081.71	-2.52994
2088.24	-7.8076
2094.77	-10.9995
2100	-4.46081