Folder: Graphs/Example Data/Raman/CNT - TIM/Raytheon/Al foil/2010/03-29-10

Note: README.md
# Graphs
A macOS app that manages the organization of data files and graphs them.

Licensed under the MIT licensing terms: https://opensource.org/licenses/MIT

Hildreth wrote the precursor to Graphs, then called GraphBase, during his Ph.D. to help manage the data he was collecting as part of his research on Metal-assisted Chemical Etching of Silicon.  He was becoming overwhelmed by the hundreds of data files he was collecting every week and was inspired by the Papers and iTunes applications on OS X (now macOS) to create an application that managed data.  GraphBase provided an easy template to create a parser, a simple UI to organize data into hiarchical folders, and leveraged the DataGraph framework (http://www.visualdatatools.com/DataGraph/Framework/) for graphing.  DataGraph (http://www.visualdatatools.com/DataGraph/) is an amazing 2D graphing application and you will need to purchase a DataGraph license from Visual Data Tools in order to use Graphs.

Graphs is a rewrite of GraphBase in Swift written by Connor and then re-written again by Hildreth that has been open sourced for use by all.  Please not that you will need a DataGraph license to create the graph templates used by the DataGraph framework underlying Graphs.  Hildreth plans to continue evolving this application.  The next plan improvements are: multithreading for import and parsing using the new Results type in Swift; and begin switching over to SwiftUI for the UI.  Long term, we hope to add support for data analysis and extraction.

# Overview
Graphs is a data management tool that allows you to store your raw data files in a text formate (CSV, tab delimited, etc.) and then have those files parsed and graphed when selected.  Graphs uses the DataGraph fromework 

To use Graphs, first you create an example graph, what we call a Graph Template, in DataGraph.  Format the graph the way you want it to look and make sure that the Data Columns are in the same order as the columns in your data.  Next, you  add your "Graph Template" to Graphs using either the Graph Template Inspector on the right side of Graphs using using the "+" sign on the bottom left of the application.  You can also drag-and-drop the file onto a folder in the Source List.  Once you add a Graph Template, you can assign it to be the default Graph Template for a folder and any sub-folders using the Folder Inspector.

The second step is to make a Paser using the Parser Inspector.  It might be helpful to have an example file already in Graphs (see Step 3) because you can use the Text Inspector to see what lines your Experimental Details, Header, and Data start at.  Add a Parse Template using the + sign in the Parse Inspector's table and give the Parse Template a name.  If your data has experimental details at the top, then select the checkbox and set the starting and ending lines for this information.  If your data has a Header, select the Header checkbox, give it starting and ending line numbers, and then select the type of s

File: Al - 03-29-10 - B3_2.txt
100	48.3746
110.002	57.2317
120.005	50.8214
130.007	52.2026
140.01	56.7722
150.012	44.1905
160.015	41.1865
170.017	42.3488
180.02	41.7444
190.022	39.3564
200.025	35.9326
210.027	32.1721
220.03	38.5661
230.032	41.0558
240.034	38.9391
250.037	37.6697
260.039	43.6242
270.042	41.6001
280.044	39.8991
290.047	42.5764
300.049	42.6201
310.052	37.7662
320.054	39.2641
330.057	35.3469
340.059	39.3722
350.062	31.9886
360.064	35.1917
370.067	31.9015
380.069	33.8949
390.071	36.6667
400.074	31.4638
410.076	30.5057
420.079	39.0604
430.081	33.1926
440.084	34.2478
450.086	29.4062
460.089	29.2481
470.091	28.7008
480.094	34.1542
490.096	24.5089
500.099	27.5516
510.101	30.4291
520.103	33.3384
530.106	29.6045
540.108	28.1145
550.111	25.5886
560.113	23.8113
570.116	24.1635
580.118	25.5641
590.121	32.9648
600.123	30.6771
610.126	27.9768
620.128	34.8551
630.131	34.3196
640.133	30.6415
650.135	35.1345
660.138	36.4683
670.14	36.6078
680.143	29.8778
690.145	33.7326
700.148	36.7546
710.15	35.3333
720.153	42.2766
730.155	34.8375
740.158	35.9858
750.16	39.4341
760.163	41.3042
770.165	43.7795
780.168	42.4793
790.17	43.2195
800.172	42.8965
810.175	44.158
820.177	46.5996
830.18	46
840.182	53.7132
850.185	59.1163
860.187	43.2908
870.19	37.4181
880.192	40.008
890.195	42.9109
900.197	37.2436
910.2	37.8166
920.202	34.115
930.204	32.0053
940.207	36.1288
950.209	32.5467
960.212	32.438
970.214	34.9339
980.217	35.4094
990.219	37.6643
1000.22	42.5975
1010.22	35.6986
1020.23	39.9937
1030.23	42.5239
1040.23	41.7725
1050.23	46.7497
1060.24	44.0851
1070.24	44.6231
1080.24	51.5357
1090.24	54.3143
1100.25	53.8608
1110.25	55.7995
1120.25	49.4635
1130.25	52.9202
1140.26	59.6961
1150.26	65.3566
1160.26	71.7261
1170.26	66.4861
1180.27	70.1098
1190.27	69.5187
1200.27	72.7402
1210.27	71.2767
1220.28	86.1724
1230.28	83.0277
1240.28	80.7742
1250.28	95.4139
1260.29	107.732
1270.29	108.182
1280.29	131.603
1290.29	138.819
1300.3	164.795
1310.3	210.856
1320.3	240.491
1330.3	286.74
1340.31	323.478
1350.31	340.608
1360.31	321.249
1370.31	278.079
1380.32	233.129
1390.32	213.27
1400.32	182.333
1410.32	157.173
1420.33	135.273
1430.33	123.727
1440.33	123.543
1450.33	131.269
1460.34	118.186
1470.34	111.035
1480.34	124.804
1490.34	119.402
1500.34	122.917
1510.35	117.791
1520.35	121.169
1530.35	131.053
1540.35	146.189
1550.36	164.317
1560.36	195.705
1570.36	236.138
1580.36	272.693
1590.37	295.03
1600.37	294.415
1610.37	285.253
1620.37	248.944
1630.38	209.994
1640.38	151.77
1650.38	110.642
1660.38	77.8768
1670.39	62.7364
1680.39	46.7138
1690.39	40.3459
1700.39	35.8014
1710.4	30.9686
1720.4	30.4292
1730.4	26.7469
1740.4	21.1801
1750.41	28.1714
1760.41	22.0719
1770.41	24.6572
1780.41	19.9956
1790.42	25.2699
1800.42	25.6383
1810.42	21.1207
1820.42	22.1194
1830.43	18.2748
1840.43	23.3057
1850.43	22.7101
1860.43	21
1870.44	19.4808
1880.44	17.2453
1890.44	16.9716
1900.44	18.1389
1910.45	21.3782
1920.45	23.3292
1930.45	15.945
1940.45	19.493
1950.46	18.7228
1960.46	18.9365
1970.46	22.8073
1980.46	23.0937
1990.47	21.0086
2000.47	21.4679
2010.47	25.2795
2020.47	22.1114
2030.48	20.2416
2040.48	20.1088
2050.48	26.6823
2060.48	21.8268
2070.49	20.7819
2080.49	18.7169
2090.49	22.8957
2100.49	21.5902
2110.5	23.9432
2120.5	24.5009
2130.5	22.4266
2140.5	20.0616
2150.51	26.2675
2160.51	22.8611
2170.51	20.6902
2180.51	21.255
2190.51	26.1624
2200.52	19.4593
2210.52	22.8618
2220.52	19.8993
2230.52	24.1939
2240.53	23.4012
2250.53	18.065
2260.53	22.2214
2270.53	27.3982
2280.54	21.4001
2290.54	32.8417
2300.54	17.6814
2310.54	18.4776
2320.55	20.8586
2330.55	45.3614
2340.55	27.8579
2350.55	26.8547
2360.56	26.3017
2370.56	25.1144
2380.56	31.8545
2390.56	27.7486
2400.57	30.7656
2410.57	32.7803
2420.57	27.8886
2430.57	29.266
2440.58	31.8687
2450.58	36.3941
2460.58	36.9858
2470.58	34.3255
2480.59	38.2986
2490.59	35.0013
2500.59	36.7031
2510.59	31.6525
2520.6	35.4689
2530.6	38.2246
2540.6	38.3831
2550.6	45.6434
2560.61	40.7145
2570.61	41
2580.61	44.2086
2590.61	43.4168
2600.62	42.9166
2610.62	53.9792
2620.62	62.1045
2630.62	64.1022
2640.63	73.1267
2650.63	72.5967
2660.63	81.0579
2670.63	89.938
2680.64	96.6396
2690.64	104
2700.64	102.664
2710.64	107.156
2720.65	91.0408
2730.65	83.3362
2740.65	77.798
2750.65	72.1148
2760.66	66.2673
2770.66	57.0708
2780.66	56.2079
2790.66	49.2865
2800.67	56.6744
2810.67	49.97
2820.67	49.3514
2830.67	50.5247
2840.68	44.8911
2850.68	41.9733
2860.68	47.1954
2870.68	52.262
2880.68	54.9571
2890.69	51.6999
2900.69	53.4973
2910.69	52.966
2920.69	51.484
2930.7	46.6836
2940.7	50.5761
2950.7	60.1182
2960.7	52.0095
2970.71	48.7955
2980.71	45.3997
2990.71	40.2066
3000	37.1431

File: Al - 03-29-10 - B3_4.txt
100	63.9484
110.002	84.8426
120.005	71.3094
130.007	62.3635
140.01	65.1559
150.012	59.2361
160.015	50.6349
170.017	51.9825
180.02	53.2566
190.022	53.1617
200.025	52.6564
210.027	48.8279
220.03	53.8428
230.032	53.7156
240.034	51.3739
250.037	54.6651
260.039	50.1555
270.042	55.8668
280.044	54.7727
290.047	52.2225
300.049	51.7467
310.052	49.6225
320.054	51.3584
330.057	51.3333
340.059	54.1553
350.062	53.5628
360.064	50.3407
370.067	48.0542
380.069	44.8949
390.071	44.655
400.074	49.9297
410.076	42.0253
420.079	42.9674
430.081	48.3526
440.084	45.8533
450.086	44.8618
460.089	39.8565
470.091	41.3333
480.094	39.975
490.096	37.0636
500.099	37.3105
510.101	35.7624
520.103	38.5991
530.106	41.9378
540.108	43.1678
550.111	27.6096
560.113	42.2592
570.116	40.0246
580.118	39.2949
590.121	41.7456
600.123	40.6055
610.126	44.7179
620.128	34.7235
630.131	36.269
640.133	46.1709
650.135	41.9783
660.138	51.6876
670.14	47.0504
680.143	44.6824
690.145	46.531
700.148	45.9035
710.15	49.034
720.153	46.065
730.155	54.5016
740.158	52.8274
750.16	50.8411
760.163	48.3398
770.165	54.2426
780.168	46.74
790.17	62.2947
800.172	59.4784
810.175	62.1792
820.177	61.2618
830.18	57.3437
840.182	56.6407
850.185	63.4944
860.187	61.8724
870.19	53.7417
880.192	51.4189
890.195	50.6079
900.197	46.7234
910.2	52.5725
920.202	46.4399
930.204	47.392
940.207	47.1915
950.209	46.8057
960.212	47.438
970.214	40.7521
980.217	55.2389
990.219	52.4653
1000.22	52.1933
1010.22	52.3275
1020.23	58.4232
1030.23	57.0692
1040.23	64.9849
1050.23	61.9422
1060.24	62.705
1070.24	67.6449
1080.24	69.3314
1090.24	75.8189
1100.25	75.3932
1110.25	75.331
1120.25	85.2711
1130.25	87.6713
1140.26	93.673
1150.26	110.294
1160.26	115.387
1170.26	123.665
1180.27	120.556
1190.27	121.887
1200.27	126.211
1210.27	142.062
1220.28	150.699
1230.28	149.199
1240.28	160.524
1250.28	179.834
1260.29	181.862
1270.29	201.341
1280.29	225.529
1290.29	247.514
1300.3	286.948
1310.3	298.324
1320.3	348.86
1330.3	375.651
1340.31	388.928
1350.31	389.353
1360.31	376.565
1370.31	345.63
1380.32	300.427
1390.32	282.759
1400.32	256.705
1410.32	236.446
1420.33	217.606
1430.33	215.81
1440.33	189.59
1450.33	197.311
1460.34	191.274
1470.34	195.56
1480.34	190.843
1490.34	184.723
1500.34	186.667
1510.35	187.488
1520.35	199.287
1530.35	197.859
1540.35	215.32
1550.36	221.448
1560.36	248.09
1570.36	288.673
1580.36	328.827
1590.37	365.35
1600.37	416.251
1610.37	391.081
1620.37	333.518
1630.38	244.669
1640.38	192.801
1650.38	138.183
1660.38	100.403
1670.39	85.8508
1680.39	69.8226
1690.39	55.5031
1700.39	43.7064
1710.4	43.6059
1720.4	35.0396
1730.4	38.6111
1740.4	41.2759
1750.41	34.9838
1760.41	37.2434
1770.41	35.7042
1780.41	30.4891
1790.42	29.2861
1800.42	30.6663
1810.42	30.8583
1820.42	29.6189
1830.43	29.54
1840.43	28.5872
1850.43	27.0869
1860.43	30.0363
1870.44	31.7137
1880.44	29.2688
1890.44	28.2492
1900.44	32.6883
1910.45	29.2342
1920.45	24.4807
1930.45	25.6483
1940.45	32.2394
1950.46	31.0877
1960.46	29.8774
1970.46	27.6629
1980.46	29.9862
1990.47	36.1085
2000.47	26.267
2010.47	33.4099
2020.47	28.1107
2030.48	32.2936
2040.48	29.5942
2050.48	28.7167
2060.48	28.3159
2070.49	27.922
2080.49	28.9497
2090.49	23.4097
2100.49	33.0311
2110.5	33.3848
2120.5	32.5864
2130.5	26.9148
2140.5	33.5835
2150.51	24.8042
2160.51	28.9652
2170.51	29.6432
2180.51	26.7077
2190.51	30.1624
2200.52	30.644
2210.52	30.1101
2220.52	31.9586
2230.52	30.2504
2240.53	31.9046
2250.53	32.7627
2260.53	30.3702
2270.53	34.1769
2280.54	35.0224
2290.54	32.7659
2300.54	32.9852
2310.54	36.7759
2320.55	30.0506
2330.55	47.0612
2340.55	33.1012
2350.55	25.3187
2360.56	33.5661
2370.56	32.6858
2380.56	31.8424
2390.56	37.9124
2400.57	36.4194
2410.57	35.5028
2420.57	38.3341
2430.57	36.817
2440.58	42.2154
2450.58	42.7132
2460.58	39.4299
2470.58	47.0526
2480.59	103.904
2490.59	45.6664
2500.59	44.3071
2510.59	52.0371
2520.6	50.322
2530.6	53.7879
2540.6	52.6514
2550.6	52.2456
2560.61	55.3199
2570.61	58.1661
2580.61	56.2597
2590.61	63.4027
2600.62	60.3701
2610.62	63.7003
2620.62	68.4801
2630.62	65.3078
2640.63	68.2227
2650.63	75.276
2660.63	77.9058
2670.63	83.1346
2680.64	79.8984
2690.64	85.1175
2700.64	85.052
2710.64	82.9673
2720.65	80.5702
2730.65	75.9943
2740.65	75.2508
2750.65	71.5305
2760.66	74.5252
2770.66	69.4594
2780.66	73.6269
2790.66	66.256
2800.67	61.9169
2810.67	67.0633
2820.67	67.207
2830.67	72.4609
2840.68	61.9171
2850.68	73.2336
2860.68	62.2225
2870.68	70.0122
2880.68	77.8285
2890.69	71.798
2900.69	68.5175
2910.69	73.5813
2920.69	70.2838
2930.7	77.2421
2940.7	79.5695
2950.7	71.9462
2960.7	76.981
2970.71	67.465
2980.71	65.3322
2990.71	54.0566
3000	56.3449

File: Al - 03-29-10 - B4_1.txt
100	67.4911
110.002	59.0022
120.005	51.6278
130.007	48.1609
140.01	48.8273
150.012	40.5099
160.015	45.4087
170.017	50.4768
180.02	50.3353
190.022	39.2442
200.025	43.1227
210.027	41.3451
220.03	44.4906
230.032	39.9197
240.034	43.3536
250.037	44.3347
260.039	40.293
270.042	41.7048
280.044	44.9716
290.047	39.1457
300.049	37.378
310.052	41.7014
320.054	41.6918
330.057	39.2686
340.059	35.7077
350.062	39.1953
360.064	38.3687
370.067	42.0707
380.069	32.3514
390.071	32.8143
400.074	38.0523
410.076	30.9448
420.079	34.6558
430.081	34.526
440.084	30.6596
450.086	30.3258
460.089	32.8445
470.091	32.5303
480.094	34.4459
490.096	31.7048
500.099	26.6667
510.101	26.6755
520.103	33.2004
530.106	23.4331
540.108	32.3875
550.111	22.3282
560.113	28.4981
570.116	27.9391
580.118	32.0448
590.121	24.4828
600.123	26.2526
610.126	34.4456
620.128	30.1382
630.131	31.731
640.133	31.891
650.135	35.5539
660.138	36.6065
670.14	38.9412
680.143	32.0809
690.145	40.7345
700.148	37.2674
710.15	36.9694
720.153	36.9198
730.155	44.6669
740.158	39.3333
750.16	42.7132
760.163	41.0647
770.165	43.3774
780.168	44.1146
790.17	45.2226
800.172	43.3562
810.175	48.8073
820.177	46.8009
830.18	47.2187
840.182	45.0536
850.185	45.8726
860.187	42.8156
870.19	43.938
880.192	40.1371
890.195	38.9621
900.197	34.8771
910.2	35.4399
920.202	33.5839
930.204	33.4448
940.207	34.7869
950.209	33.1677
960.212	33.326
970.214	31.1295
980.217	31.3228
990.219	38.5324
1000.22	36.4853
1010.22	31.3943
1020.23	42.1312
1030.23	40.697
1040.23	40
1050.23	45.5415
1060.24	40.7755
1070.24	39.5419
1080.24	40.567
1090.24	47.9049
1100.25	45.4188
1110.25	43.9324
1120.25	56.7568
1130.25	55.6667
1140.26	54.7101
1150.26	62.984
1160.26	60.2096
1170.26	62.0846
1180.27	64.7355
1190.27	72.8369
1200.27	71.196
1210.27	65.9124
1220.28	74.1724
1230.28	78.6627
1240.28	86.5713
1250.28	86.2466
1260.29	90.6667
1270.29	96.9925
1280.29	109.545
1290.29	119.333
1300.3	127.564
1310.3	134.326
1320.3	159.018
1330.3	154.393
1340.31	168.281
1350.31	160.372
1360.31	156.593
1370.31	153.91
1380.32	145.464
1390.32	129.319
1400.32	121.919
1410.32	119.086
1420.33	109.061
1430.33	107.893
1440.33	105.373
1450.33	99.5704
1460.34	89.0152
1470.34	99.695
1480.34	94.3398
1490.34	92.253
1500.34	94.5828
1510.35	107.718
1520.35	89.6153
1530.35	97.3328
1540.35	99.236
1550.36	104.268
1560.36	123.154
1570.36	133.182
1580.36	150.735
1590.37	165.554
1600.37	172.682
1610.37	160.762
1620.37	138.144
1630.38	103.563
1640.38	81.3291
1650.38	66.6788
1660.38	55.6838
1670.39	42.791
1680.39	38.3841
1690.39	25.7359
1700.39	22.9448
1710.4	23.6068
1720.4	28.3437
1730.4	18.5772
1740.4	20.1628
1750.41	22.0648
1760.41	26.4149
1770.41	25.831
1780.41	21.8311
1790.42	16.9676
1800.42	18.667
1810.42	19.391
1820.42	18.2915
1830.43	18.6667
1840.43	17.437
1850.43	21.0583
1860.43	19.2862
1870.44	19.7607
1880.44	15.9484
1890.44	18.3803
1900.44	17.0772
1910.45	21.3422
1920.45	19.7934
1930.45	20.0275
1940.45	14.0258
1950.46	21.9018
1960.46	16.0101
1970.46	14.5742
1980.46	17.7796
1990.47	20.1499
2000.47	18.6003
2010.47	19.2352
2020.47	16.7776
2030.48	18.0938
2040.48	19.0121
2050.48	15.1174
2060.48	16.9025
2070.49	21.8724
2080.49	21.009
2090.49	18.8957
2100.49	18.718
2110.5	20.1683
2120.5	22.1672
2130.5	16.7627
2140.5	23.9692
2150.51	17.2945
2160.51	19.5834
2170.51	13.8987
2180.51	21.7202
2190.51	16.6753
2200.52	18.9194
2210.52	19.3989
2220.52	18.5647
2230.52	18.1858
2240.53	15.9538
2250.53	19.8116
2260.53	17.72
2270.53	18.2401
2280.54	21.467
2290.54	18.1639
2300.54	23.5652
2310.54	20.4328
2320.55	26.1012
2330.55	32.5459
2340.55	21.4477
2350.55	21.4977
2360.56	20.3243
2370.56	20.8953
2380.56	23.609
2390.56	28.2344
2400.57	21.4452
2410.57	25.0875
2420.57	26.7773
2430.57	30.7582
2440.58	27.7693
2450.58	24.6008
2460.58	23.821
2470.58	22.6482
2480.59	31.9458
2490.59	29.8322
2500.59	28.5939
2510.59	27.0088
2520.6	27.9124
2530.6	25.3209
2540.6	34.0691
2550.6	27.462
2560.61	39.6103
2570.61	31.0711
2580.61	29.8906
2590.61	30.19
2600.62	33.2088
2610.62	36.1991
2620.62	35.6399
2630.62	29.193
2640.63	35.4241
2650.63	36.6098
2660.63	38.1715
2670.63	37.0669
2680.64	36.7248
2690.64	32.7416
2700.64	35.8351
2710.64	31.3934
2720.65	35.1567
2730.65	35.4052
2740.65	30.342
2750.65	36.3414
2760.66	35.2376
2770.66	32.5922
2780.66	32.009
2790.66	31.241
2800.67	36.9816
2810.67	33.5069
2820.67	32.7665
2830.67	36.0923
2840.68	36.9845
2850.68	33.2531
2860.68	30.5402
2870.68	34.3099
2880.68	39.6613
2890.69	33.9002
2900.69	32.547
2910.69	32.3556
2920.69	35.0729
2930.7	38.3834
2940.7	40.5048
2950.7	32.8599
2960.7	31.4452
2970.71	33.3333
2980.71	37.3335
2990.71	33.24
3000	31.0124

File: Al - 03-29-10 - B4_4.txt
100	70.9897
110.002	77.3016
120.005	71.7595
130.007	69.8585
140.01	65.4939
150.012	56.7679
160.015	58.0714
170.017	56.1424
180.02	57.6472
190.022	52.2871
200.025	47.221
210.027	49.644
220.03	49.1635
230.032	52.9511
240.034	48.2788
250.037	46.6678
260.039	49.7617
270.042	46.1619
280.044	40.956
290.047	46.7909
300.049	45.2514
310.052	46.5925
320.054	48.1867
330.057	47.0541
340.059	42.4542
350.062	49.4134
360.064	50.5324
370.067	41.3498
380.069	45.452
390.071	42.5029
400.074	43.9097
410.076	43.8023
420.079	39.4915
430.081	39.4163
440.084	36.0698
450.086	44.0868
460.089	35.5815
470.091	37.4962
480.094	31.7
490.096	42.8397
500.099	35.2068
510.101	35.3102
520.103	36.5438
530.106	36.6139
540.108	38.7765
550.111	36.7031
560.113	37.8315
570.116	35.7393
580.118	41.2949
590.121	36.7193
600.123	35.7174
610.126	37.4127
620.128	39.9063
630.131	39.3539
640.133	44.5293
650.135	38.8012
660.138	42.7357
670.14	36.1009
680.143	47.4615
690.145	39.0057
700.148	46.0525
710.15	45.3368
720.153	42.5201
730.155	52.3346
740.158	42.4185
750.16	48
760.163	47.9417
770.165	49.9975
780.168	53.5108
790.17	55.6667
800.172	51.6895
810.175	55.8247
820.177	56.3289
830.18	62.5208
840.182	56.8132
850.185	56.1948
860.187	53.922
870.19	54.4018
880.192	50.1814
890.195	47.489
900.197	49.9371
910.2	46.2799
920.202	41.2037
930.204	43.451
940.207	44.3137
950.209	45.0082
960.212	46.0973
970.214	41.2782
980.217	45.4172
990.219	47.5347
1000.22	46.323
1010.22	48.0348
1020.23	49.9039
1030.23	52.697
1040.23	60.0385
1050.23	60.3165
1060.24	55.5272
1070.24	57.5988
1080.24	64.8328
1090.24	59.0763
1100.25	65.1038
1110.25	68.1198
1120.25	70.4914
1130.25	70.338
1140.26	89.9657
1150.26	91.8486
1160.26	86.1615
1170.26	87.0033
1180.27	94.1766
1190.27	95.6515
1200.27	91.2539
1210.27	100.847
1220.28	110.908
1230.28	121.532
1240.28	125.143
1250.28	122.084
1260.29	129.618
1270.29	150.833
1280.29	154.513
1290.29	162.7
1300.3	180.999
1310.3	199.83
1320.3	222.124
1330.3	229.169
1340.31	245.76
1350.31	247.127
1360.31	237.887
1370.31	235.951
1380.32	208.08
1390.32	181.965
1400.32	177.1
1410.32	172.489
1420.33	172.273
1430.33	155.413
1440.33	149.372
1450.33	139.646
1460.34	144.57
1470.34	155.092
1480.34	157.843
1490.34	149.337
1500.34	131.718
1510.35	136.817
1520.35	144.149
1530.35	160.158
1540.35	160.14
1550.36	171.511
1560.36	193.308
1570.36	209.526
1580.36	226.572
1590.37	248.108
1600.37	248.983
1610.37	236.924
1620.37	186.117
1630.38	156.969
1640.38	123.482
1650.38	96.1382
1660.38	60.5981
1670.39	61.194
1680.39	47.7174
1690.39	44.6353
1700.39	35.4658
1710.4	39.0912
1720.4	34.8521
1730.4	29.7779
1740.4	23.569
1750.41	27.081
1760.41	32.7302
1770.41	28.0845
1780.41	26.8443
1790.42	25.4764
1800.42	25.5278
1810.42	31.0078
1820.42	28.5771
1830.43	26.6786
1840.43	31.0121
1850.43	28.4065
1860.43	24.2174
1870.44	29.8973
1880.44	26.2172
1890.44	27.0983
1900.44	28.6512
1910.45	26.685
1920.45	26.0083
1930.45	26.2161
1940.45	34.8169
1950.46	24.9123
1960.46	24.4805
1970.46	22.8555
1980.46	25.1129
1990.47	22.4582
2000.47	30.4661
2010.47	27.4637
2020.47	28.8881
2030.48	27.6646
2040.48	20.8117
2050.48	30.6494
2060.48	30.8938
2070.49	25
2080.49	24.5936
2090.49	27.9516
2100.49	27.2617
2110.5	26.4502
2120.5	28.9138
2130.5	27.0987
2140.5	32.9476
2150.51	26.0194
2160.51	31.5278
2170.51	28.1703
2180.51	29.2923
2190.51	27.8632
2200.52	26.5861
2210.52	21.6496
2220.52	26.5955
2230.52	27.3142
2240.53	28.0225
2250.53	27.4407
2260.53	29.2953
2270.53	26.8812
2280.54	29.5334
2290.54	28.0702
2300.54	27.2325
2310.54	29.5574
2320.55	25.0402
2330.55	43.3028
2340.55	30.4477
2350.55	29.6059
2360.56	27.8588
2370.56	30.5048
2380.56	35.6848
2390.56	31.322
2400.57	23.8839
2410.57	34.5792
2420.57	33.9985
2430.57	38.5405
2440.58	34.9713
2450.58	32.4083
2460.58	35.4688
2470.58	39.1628
2480.59	36.8947
2490.59	40.1655
2500.59	39.4869
2510.59	42.9277
2520.6	34.9266
2530.6	41
2540.6	39.3333
2550.6	41.0585
2560.61	40.4215
2570.61	39.7621
2580.61	45.2137
2590.61	44.5482
2600.62	43.683
2610.62	51.2795
2620.62	51.2317
2630.62	52.0586
2640.63	52.6133
2650.63	52.1544
2660.63	55.3268
2670.63	56.4319
2680.64	52.2594
2690.64	51.2758
2700.64	52.8847
2710.64	60.3803
2720.65	50.8646
2730.65	54.7677
2740.65	54.7813
2750.65	49.8284
2760.66	54.4875
2770.66	48.9206
2780.66	49.4533
2790.66	52.2989
2800.67	47.7901
2810.67	50.9348
2820.67	46.7878
2830.67	48.4695
2840.68	48.4473
2850.68	51.4743
2860.68	47.2182
2870.68	53.0723
2880.68	54.5756
2890.69	49.3001
2900.69	51.4919
2910.69	51.4947
2920.69	57.2235
2930.7	51.7167
2940.7	49.9434
2950.7	44.0863
2960.7	51.1071
2970.71	43.0182
2980.71	51.3997
2990.71	46.9434
3000	46.1307