Folder: Graphs/Example Data/Raman/CNT - TIM/Raytheon/Al foil/2010/03-26-10

Note: README.md
# Graphs
A macOS app that manages the organization of data files and graphs them.

Licensed under the MIT licensing terms: https://opensource.org/licenses/MIT

Hildreth wrote the precursor to Graphs, then called GraphBase, during his Ph.D. to help manage the data he was collecting as part of his research on Metal-assisted Chemical Etching of Silicon.  He was becoming overwhelmed by the hundreds of data files he was collecting every week and was inspired by the Papers and iTunes applications on OS X (now macOS) to create an application that managed data.  GraphBase provided an easy template to create a parser, a simple UI to organize data into hiarchical folders, and leveraged the DataGraph framework (http://www.visualdatatools.com/DataGraph/Framework/) for graphing.  DataGraph (http://www.visualdatatools.com/DataGraph/) is an amazing 2D graphing application and you will need to purchase a DataGraph license from Visual Data Tools in order to use Graphs.

Graphs is a rewrite of GraphBase in Swift written by Connor and then re-written again by Hildreth that has been open sourced for use by all.  Please not that you will need a DataGraph license to create the graph templates used by the DataGraph framework underlying Graphs.  Hildreth plans to continue evolving this application.  The next plan improvements are: multithreading for import and parsing using the new Results type in Swift; and begin switching over to SwiftUI for the UI.  Long term, we hope to add support for data analysis and extraction.

# Overview
Graphs is a data management tool that allows you to store your raw data files in a text formate (CSV, tab delimited, etc.) and then have those files parsed and graphed when selected.  Graphs uses the DataGraph fromework 

To use Graphs, first you create an example graph, what we call a Graph Template, in DataGraph.  Format the graph the way you want it to look and make sure that the Data Columns are in the same order as the columns in your data.  Next, you  add your "Graph Template" to Graphs using either the Graph Template Inspector on the right side of Graphs using using the "+" sign on the bottom left of the application.  You can also drag-and-drop the file onto a folder in the Source List.  Once you add a Graph Template, you can assign it to be the default Graph Template for a folder and any sub-folders using the Folder Inspector.

The second step is to make a Paser using the Parser Inspector.  It might be helpful to have an example file already in Graphs (see Step 3) because you can use the Text Inspector to see what lines your Experimental Details, Header, and Data start at.  Add a Parse Template using the + sign in the Parse Inspector's table and give the Parse Template a name.  If your data has experimental details at the top, then select the checkbox and set the starting and ending lines for this information.  If your data has a Header, select the Header checkbox, give it starting and ending line numbers, and then select the type of s

File: Al10_LPCVD_550_5min -A _1.txt
300	219.667
306.533	236.539
313.067	241.964
319.6	225.088
326.134	243.961
332.667	251.116
339.201	240.732
345.734	228.689
352.267	273.101
358.801	250.027
365.334	275.871
371.868	262.128
378.401	246.192
384.935	289.488
391.468	247.755
398.002	267.412
404.535	247.696
411.068	281.549
417.602	253.937
424.135	264.295
430.669	244.771
437.202	259.8
443.736	243.527
450.269	277.684
456.802	242.894
463.336	267.082
469.869	243.378
476.403	243.146
482.936	419.847
489.47	248.358
496.003	261.972
502.536	230.726
509.07	243.785
515.603	234.498
522.137	219
528.67	231.994
535.204	233.471
541.737	233.539
548.271	258.214
554.804	247.858
561.337	244.709
567.871	238.344
574.404	233.602
580.938	257.138
587.471	265.014
594.005	267.513
600.538	249.087
607.071	243.567
613.605	263.237
620.138	261.018
626.672	237.704
633.205	262.798
639.739	228.991
646.272	277.187
652.806	274.457
659.339	254.456
665.872	268.425
672.406	237.692
678.939	260.669
685.473	251.8
692.006	257.353
698.54	237.393
705.073	271.077
711.606	271.964
718.14	275.481
724.673	266.594
731.207	272.329
737.74	263.319
744.274	267.798
750.807	280.967
757.341	265.5
763.874	262.452
770.407	261.707
776.941	280.238
783.474	290.654
790.008	304.556
796.541	281.621
803.075	297.692
809.608	284.618
816.141	278.73
822.675	291.633
829.208	275.599
835.742	276.286
842.275	275.789
848.809	294.361
855.342	284.804
861.875	276.505
868.409	274.374
874.942	275.758
881.476	264.353
888.009	304.819
894.543	290.83
901.076	278.594
907.61	292.128
914.143	282.698
920.676	289.986
927.21	283.848
933.743	252.038
940.277	296.272
946.81	278.977
953.344	272.22
959.877	275.472
966.41	270.988
972.944	311.039
979.477	295.697
986.011	284.352
992.544	288.889
999.078	286.76
1005.61	299.312
1012.14	302.196
1018.68	293.069
1025.21	322.341
1031.74	274.878
1038.28	303.074
1044.81	310.496
1051.35	309.268
1057.88	320
1064.41	320.025
1070.95	320.482
1077.48	324.162
1084.01	331.814
1090.55	317.316
1097.08	344.85
1103.61	341.6
1110.15	343.71
1116.68	334.852
1123.21	352.305
1129.75	368.027
1136.28	371.85
1142.81	372.879
1149.35	343.674
1155.88	375.789
1162.41	392.66
1168.95	393.504
1175.48	381.299
1182.01	398.032
1188.55	407.999
1195.08	383.754
1201.61	425.226
1208.15	423.57
1214.68	431.905
1221.21	440.342
1227.75	449.249
1234.28	454.449
1240.81	480.856
1247.35	474.094
1253.88	499.836
1260.42	480.205
1266.95	513.252
1273.48	524.339
1280.02	534.602
1286.55	549.094
1293.08	580.611
1299.62	614.407
1306.15	639.956
1312.68	656.573
1319.22	704.497
1325.75	676.968
1332.28	727.693
1338.82	740.399
1345.35	740.983
1351.88	756.759
1358.42	759.216
1364.95	712.234
1371.48	708.226
1378.02	670.702
1384.55	657.712
1391.08	606.972
1397.62	602.518
1404.15	583.247
1410.68	566.328
1417.22	588.482
1423.75	544.286
1430.28	548.531
1436.82	534.902
1443.35	536.063
1449.88	522.139
1456.42	546.994
1462.95	540.798
1469.48	516.548
1476.02	515.951
1482.55	520.018
1489.09	527.892
1495.62	530.854
1502.15	537.869
1508.69	514.032
1515.22	530.519
1521.75	542.346
1528.29	564.93
1534.82	545.243
1541.35	552.359
1547.89	567.553
1554.42	604.694
1560.95	617.318
1567.49	632.482
1574.02	709.166
1580.55	737.551
1587.09	783.261
1593.62	801.47
1600.15	826.18
1606.69	807.084
1613.22	801.174
1619.75	721.854
1626.29	639.529
1632.82	595.232
1639.35	545.564
1645.89	526.144
1652.42	471.006
1658.95	471.443
1665.49	413.42
1672.02	395
1678.55	376.971
1685.09	378.306
1691.62	325.284
1698.16	348.666
1704.69	336.093
1711.22	342.963
1717.76	335.423
1724.29	343.837
1730.82	339.591
1737.36	345.65
1743.89	318.116
1750.42	344.39
1756.96	321.454
1763.49	321.269
1770.02	323.228
1776.56	319.044
1783.09	328
1789.62	322.36
1796.16	311.929
1802.69	329.741
1809.22	313
1815.76	332.402
1822.29	314.012
1828.82	332.05
1835.36	345.751
1841.89	338.401
1848.42	296.559
1854.96	342.238
1861.49	341.678
1868.02	306.21
1874.56	307.529
1881.09	323.393
1887.62	349.57
1894.16	319.415
1900.69	303.599
1907.23	306.938
1913.76	324.353
1920.29	321.264
1926.83	333.342
1933.36	343.145
1939.89	347.474
1946.43	324.697
1952.96	333.37
1959.49	316.86
1966.03	312.861
1972.56	328.707
1979.09	315.697
1985.63	327.171
1992.16	326.283
1998.69	333.366
2000	299.416

File: Al10_LPCVD_550_5min -A_2.txt
200	141.711
206.159	135.402
212.318	147.428
218.477	140.486
224.636	157.373
230.796	149.602
236.955	149.399
243.114	153.608
249.273	143.804
255.432	156.534
261.591	156.259
267.75	138.222
273.909	156.89
280.068	148.491
286.228	149.776
292.387	143.49
298.546	149.436
304.705	153.218
310.864	153.096
317.023	162.136
323.182	149.155
329.341	156.19
335.5	163.358
341.66	166.539
347.819	161.65
353.978	158.06
360.137	156.865
366.296	155.009
372.455	165.481
378.614	161.064
384.773	160.624
390.932	158.834
397.092	161.689
403.251	165.557
409.41	157.165
415.569	153.385
421.728	158.286
427.887	155.218
434.046	157.386
440.205	150.793
446.364	162.99
452.524	154.046
458.683	152.991
464.842	152.974
471.001	157.85
477.16	157.988
483.319	256.381
489.478	156.67
495.637	154.767
501.796	150.89
507.956	160.932
514.115	147.798
520.274	145.765
526.433	140.095
532.592	139.986
538.751	153.317
544.91	151.558
551.069	145.71
557.228	152.945
563.388	150.669
569.547	151
575.706	154.648
581.865	155.084
588.024	160.77
594.183	160.766
600.342	156.398
606.501	160.151
612.66	149.931
618.82	159.221
624.979	151.119
631.138	153.765
637.297	148.333
643.456	156.76
649.615	159.34
655.774	155.571
661.933	154.026
668.092	161.085
674.252	151.361
680.411	163.918
686.57	162.044
692.729	158.775
698.888	159.739
705.047	168.299
711.206	158.376
717.365	160.338
723.524	164.308
729.683	168.658
735.843	159.02
742.002	163.046
748.161	168.695
754.32	167.578
760.479	174.655
766.638	155.608
772.797	169.784
778.956	167.616
785.115	172.302
791.275	172.208
797.434	166.102
803.593	178.409
809.752	176.414
815.911	176.801
822.07	180.293
828.229	173.371
834.388	184.67
840.547	179.393
846.707	187.554
852.866	180.953
859.025	179.794
865.184	172.492
871.343	168.817
877.502	171.102
883.661	177.708
889.82	169.221
895.979	172.656
902.139	158.622
908.298	167.469
914.457	151.118
920.616	161.582
926.775	157.007
932.934	162.628
939.093	167.866
945.252	163.419
951.411	161.32
957.571	170.126
963.73	160.715
969.889	164.061
976.048	167.04
982.207	166.851
988.366	168.381
994.525	174.614
1000.68	172.703
1006.84	172.432
1013	192.241
1019.16	166.56
1025.32	176.722
1031.48	175.574
1037.64	191.063
1043.8	182.236
1049.96	184.011
1056.12	183.365
1062.28	181.925
1068.43	189.511
1074.59	183.116
1080.75	200.551
1086.91	203.014
1093.07	194.814
1099.23	191.288
1105.39	200.913
1111.55	209.709
1117.71	205.862
1123.87	204.138
1130.03	208.811
1136.18	223.883
1142.34	223.188
1148.5	225.395
1154.66	230.588
1160.82	237.248
1166.98	240.6
1173.14	229.439
1179.3	241.326
1185.46	247.929
1191.62	246.505
1197.78	247.508
1203.93	250.755
1210.09	266.337
1216.25	263.185
1222.41	267.469
1228.57	287.64
1234.73	284.702
1240.89	288.869
1247.05	299.416
1253.21	306.882
1259.37	292.833
1265.53	318.853
1271.69	319.695
1277.84	333.87
1284	357.437
1290.16	374.054
1296.32	375.732
1302.48	388.352
1308.64	393.185
1314.8	437.128
1320.96	434.305
1327.12	455.691
1333.28	475.014
1339.44	493.568
1345.59	490.404
1351.75	459.53
1357.91	456.877
1364.07	447.02
1370.23	422.075
1376.39	419.545
1382.55	409.804
1388.71	401.314
1394.87	392.514
1401.03	352.364
1407.19	335.895
1413.34	340.944
1419.5	345.699
1425.66	315.457
1431.82	317.452
1437.98	324.61
1444.14	328.519
1450.3	312.843
1456.46	323.642
1462.62	317.078
1468.78	329.568
1474.94	315.822
1481.09	324.902
1487.25	312.688
1493.41	305.719
1499.57	320.499
1505.73	310.576
1511.89	313.706
1518.05	311.921
1524.21	330.956
1530.37	323.508
1536.53	345.231
1542.69	333.653
1548.85	347.408
1555	380.041
1561.16	381.751
1567.32	399.494
1573.48	424.71
1579.64	445.261
1585.8	460.041
1591.96	498.2
1598.12	500.813
1604.28	492.979
1610.44	472.795
1616.6	438.839
1622.75	400.622
1628.91	354.318
1635.07	325.237
1641.23	292.676
1647.39	272.248
1653.55	254.327
1659.71	239.71
1665.87	221.314
1672.03	202.844
1678.19	198.794
1684.35	184.948
1690.5	176.146
1696.66	177.008
1702.82	184.003
1708.98	183.753
1715.14	165.908
1721.3	169.006
1727.46	169.744
1733.62	166.809
1739.78	159.778
1745.94	164.108
1752.1	167.925
1758.25	168.906
1764.41	161.258
1770.57	158.269
1776.73	160.958
1782.89	169.6
1789.05	163.218
1795.21	169.804
1801.37	164.333
1807.53	164.812
1813.69	172.249
1819.85	169.137
1826.01	166.667
1832.16	162.908
1838.32	162.967
1844.48	157.313
1850.64	161.414
1856.8	152.465
1862.96	163.562
1869.12	166.021
1875.28	168.063
1881.44	154.353
1887.6	156.333
1893.76	166.053
1899.91	167.178
1906.07	175.291
1912.23	154.658
1918.39	158.214
1924.55	157.77
1930.71	159.431
1936.87	158.746
1943.03	164.076
1949.19	158.733
1955.35	157.35
1961.51	156.302
1967.66	156.549
1973.82	155.978
1979.98	154.329
1986.14	160.967
1992.3	157.75
1998.46	159.764
2000	167.222

File: Al10_LPCVD_550_5min -A_3.txt
200	154.588
206.159	133.476
212.318	148.462
218.477	145.798
224.636	137.882
230.796	143.847
236.955	148.981
243.114	147.529
249.273	151.408
255.432	144.647
261.591	146.096
267.75	147.628
273.909	147.515
280.068	155.135
286.228	154.894
292.387	151.608
298.546	142.989
304.705	157.437
310.864	154.565
317.023	158.901
323.182	161.844
329.341	151.296
335.5	144.366
341.66	161.069
347.819	166.2
353.978	163.127
360.137	169.01
366.296	158.003
372.455	164.01
378.614	162.404
384.773	161.057
390.932	169.198
397.092	155.617
403.251	166.753
409.41	169.241
415.569	153.454
421.728	163.892
427.887	157.466
434.046	161.364
440.205	159.375
446.364	150.032
452.524	163.59
458.683	166.313
464.842	160.647
471.001	159.707
477.16	153.094
483.319	260.952
489.478	144.541
495.637	153.322
501.796	150.298
507.956	154.49
514.115	145.841
520.274	149.059
526.433	148.73
532.592	143.76
538.751	144.275
544.91	143.82
551.069	145.93
557.228	146.117
563.388	154.12
569.547	155.039
575.706	153.252
581.865	145.307
588.024	153.121
594.183	156.255
600.342	150.97
606.501	157.69
612.66	151.2
618.82	158.689
624.979	154.024
631.138	148.831
637.297	167.186
643.456	160.894
649.615	156.262
655.774	163.882
661.933	153.52
668.092	149.62
674.252	163.648
680.411	159.028
686.57	162.899
692.729	161.835
698.888	162.83
705.047	151.218
711.206	157.523
717.365	166.406
723.524	162.172
729.683	156.738
735.843	167.422
742.002	163.073
748.161	170.113
754.32	167.988
760.479	160.981
766.638	164.756
772.797	167.651
778.956	167.063
785.115	167.765
791.275	173.912
797.434	172.62
803.593	170.253
809.752	174.492
815.911	173.682
822.07	172.339
828.229	180.502
834.388	179.315
840.547	174.645
846.707	178.949
852.866	187.637
859.025	184.303
865.184	180.433
871.343	171.099
877.502	174.146
883.661	177.432
889.82	172.201
895.979	170.749
902.139	165.173
908.298	162.786
914.457	175.169
920.616	161.566
926.775	176.55
932.934	162.343
939.093	158.606
945.252	164.033
951.411	171.581
957.571	162.069
963.73	150.398
969.889	150.777
976.048	167.138
982.207	171.27
988.366	164.722
994.525	173.681
1000.68	172.595
1006.84	172.099
1013	170.013
1019.16	176.191
1025.32	180.702
1031.48	186.543
1037.64	182.597
1043.8	179.423
1049.96	181.792
1056.12	188.758
1062.28	190.224
1068.43	186.456
1074.59	189.262
1080.75	190.122
1086.91	201.282
1093.07	193.888
1099.23	198.189
1105.39	197.604
1111.55	194.768
1117.71	213.95
1123.87	195.236
1130.03	211.882
1136.18	213.866
1142.34	220.147
1148.5	224.358
1154.66	232.459
1160.82	228.977
1166.98	249.718
1173.14	233.323
1179.3	247.238
1185.46	246.348
1191.62	244.147
1197.78	244.942
1203.93	255.902
1210.09	251.788
1216.25	264.098
1222.41	262.201
1228.57	267.905
1234.73	281.629
1240.89	281.01
1247.05	293.608
1253.21	298.188
1259.37	308.669
1265.53	323.465
1271.69	317.43
1277.84	340.407
1284	358.773
1290.16	361.313
1296.32	390.652
1302.48	398.698
1308.64	411.926
1314.8	452.35
1320.96	440.138
1327.12	468.981
1333.28	471.06
1339.44	496.028
1345.59	500.962
1351.75	472.976
1357.91	458.456
1364.07	455.672
1370.23	447.958
1376.39	432.864
1382.55	412.219
1388.71	394.156
1394.87	375.97
1401.03	358.165
1407.19	352.196
1413.34	335.961
1419.5	339.226
1425.66	342.696
1431.82	331.22
1437.98	327.15
1444.14	327.148
1450.3	315.42
1456.46	311.679
1462.62	323.946
1468.78	333.275
1474.94	309.63
1481.09	309.515
1487.25	316.952
1493.41	323.695
1499.57	322.65
1505.73	314.22
1511.89	308.107
1518.05	327.468
1524.21	330.244
1530.37	327.201
1536.53	328.72
1542.69	340.545
1548.85	357.516
1555	370.655
1561.16	376.174
1567.32	411.008
1573.48	423.43
1579.64	458.26
1585.8	476.962
1591.96	494.242
1598.12	519.407
1604.28	509.789
1610.44	485.432
1616.6	456.092
1622.75	408.993
1628.91	367.346
1635.07	325.201
1641.23	297.693
1647.39	267.774
1653.55	246.116
1659.71	231.713
1665.87	216.891
1672.03	211.602
1678.19	211.5
1684.35	196.313
1690.5	182.706
1696.66	181.939
1702.82	185.292
1708.98	175.604
1715.14	171.09
1721.3	172.995
1727.46	172.915
1733.62	161.807
1739.78	164.111
1745.94	174.525
1752.1	163.313
1758.25	164.746
1764.41	172.535
1770.57	163.062
1776.73	170.271
1782.89	173.362
1789.05	160.331
1795.21	164.135
1801.37	162.878
1807.53	165.282
1813.69	159.545
1819.85	153.842
1826.01	170.432
1832.16	161.549
1838.32	170.853
1844.48	159.958
1850.64	174.587
1856.8	161.799
1862.96	161.572
1869.12	161.447
1875.28	163.296
1881.44	161.021
1887.6	160.5
1893.76	167.451
1899.91	180.916
1906.07	171.12
1912.23	161.245
1918.39	165.562
1924.55	167.385
1930.71	154.21
1936.87	161.435
1943.03	152.796
1949.19	164.892
1955.35	158.085
1961.51	148.314
1967.66	161.95
1973.82	161.513
1979.98	168.887
1986.14	169.077
1992.3	155.109
1998.46	155.489
2000	157.17

File: Al10_LPCVD_550_5min -B_2.txt
200	238.973
206.159	253.088
212.318	264.493
218.477	257.776
224.636	263.907
230.796	256.141
236.955	259.12
243.114	252.794
249.273	264.49
255.432	250.494
261.591	261.853
267.75	249.983
273.909	243.7
280.068	251.707
286.228	244.353
292.387	235.585
298.546	233.011
304.705	235.923
310.864	229.073
317.023	225.25
323.182	234.92
329.341	230.868
335.5	221.92
341.66	229.8
347.819	222.963
353.978	216.879
360.137	221.229
366.296	199.017
372.455	202.816
378.614	204.077
384.773	201.614
390.932	195.318
397.092	197.62
403.251	207.258
409.41	193.923
415.569	190.362
421.728	194.321
427.887	198.215
434.046	193.552
440.205	185.588
446.364	180.364
452.524	183.264
458.683	185.646
464.842	179.246
471.001	178.926
477.16	182.182
483.319	169.126
489.478	173.67
495.637	165.876
501.796	169.907
507.956	171.232
514.115	168.982
520.274	158.827
526.433	162.991
532.592	162.251
538.751	166.613
544.91	161.608
551.069	170.865
557.228	171.209
563.388	165.911
569.547	172.033
575.706	178.396
581.865	176.4
588.024	165.185
594.183	179.206
600.342	169.066
606.501	169.761
612.66	172.774
618.82	176.426
624.979	178.226
631.138	172.488
637.297	175.679
643.456	185.561
649.615	182.274
655.774	185.832
661.933	184.871
668.092	191.656
674.252	182.803
680.411	188.352
686.57	199.833
692.729	194.74
698.888	194.028
705.047	198.66
711.206	204.85
717.365	189.962
723.524	205.034
729.683	210.446
735.843	221.639
742.002	224.358
748.161	228.363
754.32	222.206
760.479	221.533
766.638	231.012
772.797	223.134
778.956	234.673
785.115	234.188
791.275	241.904
797.434	254.598
803.593	251.597
809.752	244.104
815.911	249.096
822.07	246.951
828.229	246.66
834.388	256.267
840.547	252.769
846.707	264.877
852.866	259.781
859.025	260.098
865.184	248.288
871.343	240.726
877.502	230.05
883.661	229.061
889.82	221.708
895.979	215.253
902.139	202.314
908.298	210.968
914.457	199.651
920.616	192.124
926.775	194.597
932.934	191.685
939.093	187.281
945.252	190.928
951.411	191.913
957.571	206.213
963.73	196.753
969.889	194.632
976.048	186.611
982.207	191.901
988.366	200.17
994.525	201.931
1000.68	204.696
1006.84	207.193
1013	213.06
1019.16	217.146
1025.32	224.128
1031.48	225.698
1037.64	222.463
1043.8	228.027
1049.96	244.364
1056.12	243.09
1062.28	244.201
1068.43	253.072
1074.59	249.257
1080.75	238.947
1086.91	258.306
1093.07	258.889
1099.23	264.353
1105.39	257.276
1111.55	261.097
1117.71	282.406
1123.87	281.325
1130.03	285.151
1136.18	294.704
1142.34	302.492
1148.5	314.843
1154.66	313.085
1160.82	330.06
1166.98	330.325
1173.14	325.439
1179.3	328.665
1185.46	353.346
1191.62	364.819
1197.78	354.658
1203.93	375.295
1210.09	372.422
1216.25	389.784
1222.41	406.057
1228.57	417.375
1234.73	425.481
1240.89	453.99
1247.05	468.878
1253.21	486.64
1259.37	514.873
1265.53	513.957
1271.69	552.476
1277.84	574.741
1284	614.161
1290.16	656.715
1296.32	696.344
1302.48	749.745
1308.64	797.102
1314.8	823.312
1320.96	896.57
1327.12	940.549
1333.28	974.924
1339.44	993.261
1345.59	1007.02
1351.75	960.323
1357.91	921.184
1364.07	882.444
1370.23	842.755
1376.39	792.454
1382.55	757.295
1388.71	715.844
1394.87	699.844
1401.03	650.683
1407.19	635.108
1413.34	612.034
1419.5	580.493
1425.66	564.895
1431.82	549.728
1437.98	556.565
1444.14	523.219
1450.3	537.864
1456.46	533.065
1462.62	521.031
1468.78	523.224
1474.94	520.161
1481.09	533.367
1487.25	524.01
1493.41	521.14
1499.57	525.786
1505.73	521.107
1511.89	527.199
1518.05	557.73
1524.21	552.077
1530.37	573.245
1536.53	590.684
1542.69	624.757
1548.85	653.524
1555	705.978
1561.16	754.917
1567.32	803.594
1573.48	863.037
1579.64	910.393
1585.8	936.067
1591.96	934.972
1598.12	929.445
1604.28	900.343
1610.44	835.967
1616.6	740.506
1622.75	650.217
1628.91	564.979
1635.07	482.529
1641.23	413.994
1647.39	378.851
1653.55	321.366
1659.71	277.169
1665.87	255.342
1672.03	220.782
1678.19	199.735
1684.35	182.87
1690.5	181.591
1696.66	158.95
1702.82	144.969
1708.98	141.951
1715.14	151.076
1721.3	140.894
1727.46	127.135
1733.62	130.555
1739.78	136.639
1745.94	126.124
1752.1	125.763
1758.25	123.962
1764.41	122.523
1770.57	117.14
1776.73	118.54
1782.89	120.065
1789.05	115.061
1795.21	123.249
1801.37	110.92
1807.53	116.989
1813.69	117.696
1819.85	120.004
1826.01	114.738
1832.16	114.077
1838.32	112.408
1844.48	116.25
1850.64	99.5474
1856.8	120.751
1862.96	111.337
1869.12	118.752
1875.28	118.749
1881.44	115.359
1887.6	100.5
1893.76	103.921
1899.91	106.583
1906.07	110.536
1912.23	103.776
1918.39	107.849
1924.55	97.9098
1930.71	104.263
1936.87	108.303
1943.03	111.963
1949.19	107.709
1955.35	111.382
1961.51	109.245
1967.66	117.148
1973.82	117.044
1979.98	108.729
1986.14	102.714
1992.3	102.712
1998.46	104.917
2000	112.528

File: Al10_LPCVD_600_10min -A_1.txt
200	328.704
206.159	363.207
212.318	368.523
218.477	379.698
224.636	354.969
230.796	356.818
236.955	347.915
243.114	333.211
249.273	340.7
255.432	348.778
261.591	345.157
267.75	338.383
273.909	342.071
280.068	335.892
286.228	344.876
292.387	339.419
298.546	309.039
304.705	323.948
310.864	313.574
317.023	322.85
323.182	307.471
329.341	317.925
335.5	303.276
341.66	303.343
347.819	295.962
353.978	288.545
360.137	297.161
366.296	273.752
372.455	275.154
378.614	276.663
384.773	278.851
390.932	271.104
397.092	282.715
403.251	275.684
409.41	271.102
415.569	260.132
421.728	265.284
427.887	264.499
434.046	281.931
440.205	258.985
446.364	256.54
452.524	249.006
458.683	253.271
464.842	243.784
471.001	233.831
477.16	246.535
483.319	232.856
489.478	236.635
495.637	229.393
501.796	237.654
507.956	222.558
514.115	228.664
520.274	225.353
526.433	221.013
532.592	229.991
538.751	233.917
544.91	233.484
551.069	239.919
557.228	226.599
563.388	234.99
569.547	243.828
575.706	230.053
581.865	248.633
588.024	224.108
594.183	233.737
600.342	243.804
606.501	228.28
612.66	246.156
618.82	235.421
624.979	242.952
631.138	244.771
637.297	244.553
643.456	250.422
649.615	250.731
655.774	259.726
661.933	258.415
668.092	255.648
674.252	254.006
680.411	253.247
686.57	260.384
692.729	259.194
698.888	257.177
705.047	252.972
711.206	258.846
717.365	267.62
723.524	264.298
729.683	280.009
735.843	281.967
742.002	281.089
748.161	283.507
754.32	281.561
760.479	279.938
766.638	299.138
772.797	295.711
778.956	293.346
785.115	293.531
791.275	305.823
797.434	307.535
803.593	304.901
809.752	313.578
815.911	315.49
822.07	321.166
828.229	311.985
834.388	323.301
840.547	334.556
846.707	325.912
852.866	332.82
859.025	321.056
865.184	324.251
871.343	299.3
877.502	302.022
883.661	295.355
889.82	280.032
895.979	288.243
902.139	271.033
908.298	269.708
914.457	263.758
920.616	272.174
926.775	267.789
932.934	264.921
939.093	246.56
945.252	261.226
951.411	261.991
957.571	268.152
963.73	266.348
969.889	256.605
976.048	261.181
982.207	266.58
988.366	266.359
994.525	276.649
1000.68	284.434
1006.84	287.75
1013	292.766
1019.16	305.878
1025.32	308.665
1031.48	323.13
1037.64	326.137
1043.8	335.4
1049.96	329.696
1056.12	335.247
1062.28	346.63
1068.43	338.167
1074.59	333.957
1080.75	342.788
1086.91	350.584
1093.07	356.64
1099.23	369.277
1105.39	376.681
1111.55	370.421
1117.71	397.837
1123.87	402.066
1130.03	413.797
1136.18	418.838
1142.34	438.382
1148.5	460.746
1154.66	457.035
1160.82	465.259
1166.98	477.258
1173.14	492.137
1179.3	493.069
1185.46	492.32
1191.62	514.843
1197.78	518.305
1203.93	546.621
1210.09	541.175
1216.25	577.291
1222.41	576.461
1228.57	609.756
1234.73	634.496
1240.89	666.087
1247.05	667.06
1253.21	716.646
1259.37	726.833
1265.53	762.567
1271.69	792.825
1277.84	904.428
1284	919.319
1290.16	985.294
1296.32	1028.73
1302.48	1108.12
1308.64	1203.16
1314.8	1280.88
1320.96	1362.71
1327.12	1430.68
1333.28	1481.96
1339.44	1531.79
1345.59	1525.55
1351.75	1433.61
1357.91	1402.99
1364.07	1333.58
1370.23	1263.66
1376.39	1187.02
1382.55	1098.93
1388.71	1061.52
1394.87	1011.44
1401.03	961.93
1407.19	908.621
1413.34	889.606
1419.5	843.603
1425.66	823.387
1431.82	807.529
1437.98	779.291
1444.14	795.877
1450.3	770.863
1456.46	755.356
1462.62	752.697
1468.78	767.642
1474.94	750.197
1481.09	767.952
1487.25	755.933
1493.41	743.951
1499.57	769.462
1505.73	783.953
1511.89	757.738
1518.05	784.414
1524.21	803.983
1530.37	832.972
1536.53	864.284
1542.69	902.492
1548.85	969.259
1555	1041.85
1561.16	1112.16
1567.32	1203.23
1573.48	1276.54
1579.64	1347.87
1585.8	1380.12
1591.96	1406.65
1598.12	1382.96
1604.28	1287.43
1610.44	1205.68
1616.6	1072.09
1622.75	915.554
1628.91	781.187
1635.07	664.102
1641.23	580.699
1647.39	504.744
1653.55	443.551
1659.71	393.479
1665.87	347.886
1672.03	314.413
1678.19	294.314
1684.35	263.172
1690.5	253.394
1696.66	238.284
1702.82	225.688
1708.98	219.395
1715.14	211.285
1721.3	195.754
1727.46	201.873
1733.62	187.414
1739.78	184.945
1745.94	177.355
1752.1	188.577
1758.25	175.637
1764.41	181.691
1770.57	176.878
1776.73	180.549
1782.89	181.799
1789.05	180.545
1795.21	170.462
1801.37	168.899
1807.53	164.098
1813.69	161.566
1819.85	149.09
1826.01	163.769
1832.16	164.508
1838.32	160.322
1844.48	169.931
1850.64	165.561
1856.8	164.5
1862.96	160.706
1869.12	162.828
1875.28	159.656
1881.44	151.024
1887.6	160.626
1893.76	153.473
1899.91	159.031
1906.07	159.552
1912.23	154.537
1918.39	152.661
1924.55	151.591
1930.71	152.331
1936.87	160.231
1943.03	149.971
1949.19	157.638
1955.35	156.473
1961.51	153.744
1967.66	154.813
1973.82	150.493
1979.98	150.759
1986.14	161.772
1992.3	158.258
1998.46	165.927
2000	152.532