Folder: Graphs/Example Data/Raman/CNT - TIM/Raytheon/Al foil/2010/03-26-10 (part 2)

File: Al10_LPCVD_600_10min -B_3.txt
200	377.349
206.159	377.226
212.318	375.4
218.477	379.064
224.636	371.824
230.796	383.063
236.955	388.486
243.114	382.343
249.273	363.511
255.432	376.873
261.591	371.439
267.75	359.229
273.909	351.269
280.068	369.463
286.228	372.877
292.387	347.791
298.546	366.031
304.705	342.804
310.864	341.508
317.023	334.851
323.182	329.83
329.341	338.263
335.5	322.179
341.66	321.066
347.819	321.95
353.978	321.199
360.137	301.715
366.296	309.502
372.455	324.611
378.614	301.951
384.773	303.182
390.932	295.949
397.092	294.857
403.251	301.302
409.41	291.367
415.569	288.921
421.728	286.503
427.887	290.318
434.046	287.575
440.205	286.037
446.364	269.324
452.524	282.042
458.683	275.362
464.842	283.488
471.001	267.478
477.16	267.894
483.319	266.542
489.478	255.066
495.637	257.893
501.796	246.315
507.956	247.397
514.115	261.337
520.274	252.511
526.433	241.092
532.592	255.953
538.751	235.308
544.91	236.661
551.069	240.343
557.228	249.466
563.388	254.559
569.547	247.56
575.706	250.504
581.865	250.204
588.024	256.228
594.183	254.013
600.342	259.462
606.501	250.248
612.66	269.902
618.82	257.921
624.979	252.839
631.138	257.926
637.297	265.279
643.456	264.434
649.615	257.971
655.774	256.505
661.933	277.039
668.092	275.329
674.252	274.281
680.411	267.201
686.57	270.651
692.729	268.975
698.888	286.634
705.047	267.216
711.206	276.979
717.365	281.081
723.524	289.859
729.683	299.203
735.843	286.536
742.002	295.813
748.161	293.754
754.32	305.565
760.479	302.381
766.638	317.127
772.797	311.673
778.956	317.797
785.115	334.945
791.275	329.239
797.434	333.112
803.593	335.851
809.752	320.948
815.911	333.569
822.07	346.666
828.229	330.303
834.388	334.356
840.547	352.488
846.707	345.534
852.866	355.281
859.025	356.509
865.184	350.589
871.343	311.128
877.502	327.293
883.661	316.127
889.82	312.282
895.979	302.243
902.139	295.578
908.298	283.928
914.457	278.081
920.616	278.357
926.775	276.337
932.934	275.875
939.093	277.333
945.252	286.628
951.411	280.254
957.571	280.953
963.73	272.873
969.889	289.473
976.048	289.908
982.207	293.808
988.366	290.876
994.525	301.579
1000.68	312.368
1006.84	315.736
1013	311.523
1019.16	326.775
1025.32	341.599
1031.48	359.716
1037.64	364.024
1043.8	360.927
1049.96	361.226
1056.12	370.795
1062.28	386.549
1068.43	370.594
1074.59	379.974
1080.75	400.414
1086.91	402.304
1093.07	399.5
1099.23	403.728
1105.39	416.121
1111.55	424.896
1117.71	423.69
1123.87	454.406
1130.03	456.924
1136.18	475.349
1142.34	483.656
1148.5	502.406
1154.66	517.094
1160.82	530.214
1166.98	544.629
1173.14	544.736
1179.3	555.051
1185.46	561.75
1191.62	579.635
1197.78	592.655
1203.93	606.685
1210.09	600.193
1216.25	638.64
1222.41	655.352
1228.57	676.123
1234.73	717.782
1240.89	730.514
1247.05	758.622
1253.21	797.316
1259.37	809.755
1265.53	867.665
1271.69	924.307
1277.84	972.271
1284	1025.5
1290.16	1080.18
1296.32	1146.37
1302.48	1238.96
1308.64	1305.79
1314.8	1432.4
1320.96	1513.79
1327.12	1591.38
1333.28	1637.87
1339.44	1687.32
1345.59	1688.83
1351.75	1667.78
1357.91	1597.39
1364.07	1512.52
1370.23	1433.89
1376.39	1364.23
1382.55	1295.39
1388.71	1188.34
1394.87	1136.3
1401.03	1076.52
1407.19	1032.96
1413.34	999.595
1419.5	948.289
1425.66	923.027
1431.82	904.774
1437.98	892.887
1444.14	864.151
1450.3	868.264
1456.46	858.122
1462.62	846.476
1468.78	837.747
1474.94	859.206
1481.09	864.544
1487.25	854.295
1493.41	864.577
1499.57	877.622
1505.73	878.396
1511.89	867.551
1518.05	896.307
1524.21	905.076
1530.37	934.428
1536.53	993.191
1542.69	1014.61
1548.85	1079.11
1555	1187.24
1561.16	1227.88
1567.32	1340.24
1573.48	1440.41
1579.64	1519.79
1585.8	1583.09
1591.96	1603.87
1598.12	1582.9
1604.28	1497.15
1610.44	1408.54
1616.6	1247.1
1622.75	1070.29
1628.91	917.93
1635.07	789.881
1641.23	684.611
1647.39	581.222
1653.55	509.754
1659.71	452.88
1665.87	404.383
1672.03	361.816
1678.19	327.108
1684.35	303.945
1690.5	277.193
1696.66	271.678
1702.82	256.504
1708.98	239.571
1715.14	231.335
1721.3	221.784
1727.46	223.148
1733.62	213.943
1739.78	213.028
1745.94	214.293
1752.1	204.567
1758.25	204.071
1764.41	207.672
1770.57	193.718
1776.73	196.302
1782.89	195.927
1789.05	190.852
1795.21	188.482
1801.37	193.065
1807.53	194.032
1813.69	185.23
1819.85	181.395
1826.01	198.452
1832.16	181.842
1838.32	183.156
1844.48	184.996
1850.64	182.851
1856.8	182.149
1862.96	188.905
1869.12	177.176
1875.28	174.531
1881.44	180.553
1887.6	178.625
1893.76	174.276
1899.91	176.791
1906.07	177.255
1912.23	168.076
1918.39	174.671
1924.55	177.648
1930.71	164.278
1936.87	174.562
1943.03	176.925
1949.19	169.709
1955.35	170.434
1961.51	173.247
1967.66	177.387
1973.82	181.705
1979.98	165.012
1986.14	172.847
1992.3	174.745
1998.46	172.927
2000	175.674