Folder: Graphs/Example Data/Raman/CNT - TIM/Raytheon/Al foil/2010/04-03-10

Note: README.md
# Graphs
A macOS app that manages the organization of data files and graphs them.

Licensed under the MIT licensing terms: https://opensource.org/licenses/MIT

Hildreth wrote the precursor to Graphs, then called GraphBase, during his Ph.D. to help manage the data he was collecting as part of his research on Metal-assisted Chemical Etching of Silicon.  He was becoming overwhelmed by the hundreds of data files he was collecting every week and was inspired by the Papers and iTunes applications on OS X (now macOS) to create an application that managed data.  GraphBase provided an easy template to create a parser, a simple UI to organize data into hiarchical folders, and leveraged the DataGraph framework (http://www.visualdatatools.com/DataGraph/Framework/) for graphing.  DataGraph (http://www.visualdatatools.com/DataGraph/) is an amazing 2D graphing application and you will need to purchase a DataGraph license from Visual Data Tools in order to use Graphs.

Graphs is a rewrite of GraphBase in Swift written by Connor and then re-written again by Hildreth that has been open sourced for use by all.  Please not that you will need a DataGraph license to create the graph templates used by the DataGraph framework underlying Graphs.  Hildreth plans to continue evolving this application.  The next plan improvements are: multithreading for import and parsing using the new Results type in Swift; and begin switching over to SwiftUI for the UI.  Long term, we hope to add support for data analysis and extraction.

# Overview
Graphs is a data management tool that allows you to store your raw data files in a text formate (CSV, tab delimited, etc.) and then have those files parsed and graphed when selected.  Graphs uses the DataGraph fromework 

To use Graphs, first you create an example graph, what we call a Graph Template, in DataGraph.  Format the graph the way you want it to look and make sure that the Data Columns are in the same order as the columns in your data.  Next, you  add your "Graph Template" to Graphs using either the Graph Template Inspector on the right side of Graphs using using the "+" sign on the bottom left of the application.  You can also drag-and-drop the file onto a folder in the Source List.  Once you add a Graph Template, you can assign it to be the default Graph Template for a folder and any sub-folders using the Folder Inspector.

The second step is to make a Paser using the Parser Inspector.  It might be helpful to have an example file already in Graphs (see Step 3) because you can use the Text Inspector to see what lines your Experimental Details, Header, and Data start at.  Add a Parse Template using the + sign in the Parse Inspector's table and give the Parse Template a name.  If your data has experimental details at the top, then select the checkbox and set the starting and ending lines for this information.  If your data has a Header, select the Header checkbox, give it starting and ending line numbers, and then select the type of s

File: Al - 4-3-10 - run2 - 10 microns - A_1.txt
200	100.6
209.816	108.207
219.632	110.686
229.448	103.421
239.264	108.023
249.08	108.899
258.896	102.858
268.712	102.857
278.528	100.012
288.344	100.826
298.16	104.909
307.975	100.471
317.791	97.7666
327.607	91.7021
337.423	96.8531
347.239	91.3951
357.055	91.2323
366.871	92.7562
376.687	81.2861
386.503	83.7573
396.319	83.4354
406.135	81.3776
415.951	80.5877
425.767	88.5968
435.583	90.5431
445.399	75.7935
455.215	74.67
465.031	73.3197
474.847	81.1543
484.663	73.6591
494.479	68.5514
504.294	76.0462
514.11	76.8032
523.926	78.265
533.742	74.0294
543.558	68.7582
553.374	78.8473
563.19	73.9919
573.006	70.868
582.822	79.9788
592.638	68.6177
602.454	70.7538
612.27	74.3958
622.086	69.0266
631.902	66.1612
641.718	79.579
651.534	78.1684
661.35	76.7481
671.166	76.2925
680.982	77.0293
690.798	85.2673
700.614	90.2256
710.429	81.7702
720.245	84.8247
730.061	87.8436
739.877	84.87
749.693	88.2546
759.509	88.6825
769.325	93.5174
779.141	100.851
788.957	94.7959
798.773	93.5951
808.589	95.5054
818.405	99.5715
828.221	100.194
838.037	97.2151
847.853	105.356
857.669	94.6667
867.485	103.667
877.301	105.704
887.117	101.501
896.932	92.2507
906.748	92.3333
916.564	91.8548
926.38	92
936.196	88.738
946.012	87.0685
955.828	87.4742
965.644	79.3327
975.46	92.6884
985.276	88.1354
995.092	95.3742
1004.91	97.4311
1014.72	102.118
1024.54	101.844
1034.36	115.608
1044.17	114.069
1053.99	116.976
1063.8	120.049
1073.62	112.429
1083.44	121.61
1093.25	129.739
1103.07	134.021
1112.88	147.893
1122.7	142.908
1132.52	154.35
1142.33	162.014
1152.15	168.488
1161.96	173.26
1171.78	183.125
1181.6	181.622
1191.41	196.318
1201.23	195.595
1211.04	213.552
1220.86	205.864
1230.67	232.844
1240.49	233.668
1250.31	256.437
1260.12	269.688
1269.94	300.859
1279.75	314.755
1289.57	353.183
1299.39	378.583
1309.2	409.244
1319.02	460.183
1328.83	488.459
1338.65	521.791
1348.47	486.274
1358.28	485.761
1368.1	444.851
1377.91	412.638
1387.73	383.345
1397.55	355.853
1407.36	333.242
1417.18	335.561
1426.99	317.306
1436.81	310.978
1446.63	299.174
1456.44	295.824
1466.26	287.231
1476.07	283.502
1485.89	276.855
1495.71	292.595
1505.52	281.321
1515.34	299.688
1525.15	304.146
1534.97	318.705
1544.79	341.032
1554.6	381.588
1564.42	404.726
1574.23	439.695
1584.05	490.397
1593.86	517.618
1603.68	506.049
1613.5	436.599
1623.31	360.087
1633.13	277.102
1642.94	225.097
1652.76	176.562
1662.58	150.781
1672.39	139.178
1682.21	106.378
1692.02	101.639
1701.84	87.1669
1711.66	82.5477
1721.47	80.0165
1731.29	79.7717
1741.1	83.0104
1750.92	73.1555
1760.74	75.8562
1770.55	74.5156
1780.37	72.3511
1790.18	72.1841
1800	76.1103
1809.82	64.6075
1819.63	67.3159
1829.45	66.6639
1839.26	64.8928
1849.08	65.3478
1858.9	69.6047
1868.71	60.1424
1878.53	68.2532
1888.34	68.7227
1898.16	63.4796
1907.98	67.0928
1917.79	59.4823
1927.61	62.3305
1937.42	68.3045
1947.24	64.9925
1957.06	70.5965
1966.87	63.2321
1976.69	68.0447
1986.5	65.035
1996.32	67.4063
2006.14	67.1227
2015.95	66.2575
2025.77	70.775
2035.58	62.7559
2045.4	69.9591
2055.21	69.0436
2065.03	69.4426
2074.85	62.5851
2084.66	64.5201
2094.48	67.2735
2104.29	70.6378
2114.11	68.4509
2123.93	66.8689
2133.74	69.5217
2143.56	67.9963
2153.37	69.5175
2163.19	63.0934
2173.01	64.0932
2182.82	67.7593
2192.64	70.1639
2202.45	62.4917
2212.27	71.6285
2222.09	66.5736
2231.9	75.3253
2241.72	69.1435
2251.53	70.5265
2261.35	77.4587
2271.17	72.5308
2280.98	77.8221
2290.8	63.9065
2300.61	73.8651
2310.43	66.636
2320.25	74.8454
2330.06	98.5297
2339.88	77.1414
2349.69	79.9845
2359.51	77.1122
2369.33	81.6051
2379.14	81.3065
2388.96	83.8986
2398.77	82.4964
2408.59	78.9354
2418.41	82.6116
2428.22	86.0334
2438.04	93.603
2447.85	88.1628
2457.67	84.9423
2467.48	93.2404
2477.3	91.2175
2487.12	92.0684
2496.93	97.5654
2506.75	96.4968
2516.56	94.0415
2526.38	102.749
2536.2	99.9763
2546.01	101.437
2555.83	99.6345
2565.64	106.785
2575.46	106.844
2585.28	118.748
2595.09	115.433
2604.91	118.563
2614.72	123.366
2624.54	126.275
2634.36	128.995
2644.17	122.323
2653.99	135.242
2663.8	134.437
2673.62	138.973
2683.44	139.546
2693.25	127.854
2703.07	131.667
2712.88	136.186
2722.7	123.715
2732.52	127.364
2742.33	138.585
2752.15	128.878
2761.96	122.07
2771.78	117.92
2781.59	129.746
2791.41	119.836
2801.23	124.828
2811.04	122.237
2820.86	133.769
2830.67	122.006
2840.49	124.634
2850.31	126.895
2860.12	124.473
2869.94	138.067
2879.75	134.989
2889.57	122.891
2899.39	134.598
2909.2	132.498
2919.02	135.183
2928.83	131.298
2938.65	117.753
2948.47	134.327
2958.28	128.489
2968.1	121.462
2977.91	122.737
2987.73	114.649
2997.55	108.842
3000	124.604

File: Al - 4-3-10 - run2 - 10 microns - b_3.txt
200	82.8293
209.816	89.5547
219.632	82.689
229.448	88.2088
239.264	92.158
249.08	87.0335
258.896	93.548
268.712	93.1948
278.528	93.7995
288.344	90.129
298.16	91.4038
307.975	81.6178
317.791	88.5555
327.607	85.3591
337.423	83.3707
347.239	82.3333
357.055	80.0339
366.871	91.6354
376.687	80.8711
386.503	83.3069
396.319	77.9978
406.135	79.2676
415.951	84.3531
425.767	74.9301
435.583	85.5526
445.399	75.0323
455.215	72.9983
465.031	81.2299
474.847	65.03125
484.663	81.6082
494.479	73.3315
504.294	66.1861
514.11	61.4928
523.926	70.0215
533.742	61.9955
543.558	59.8056
553.374	63.0719
563.19	67.3252
573.006	65.5541
582.822	62.6991
592.638	61.046
602.454	62.4923
612.27	64.6145
622.086	66.4053
631.902	67.3828
641.718	75.9433
651.534	78.186
661.35	78.5872
671.166	74.1224
680.982	74.7315
690.798	70.0915
700.614	74.6977
710.429	73.9974
720.245	72.7738
730.061	77.115
739.877	75.3209
749.693	81.3149
759.509	83.3834
769.325	89.1957
779.141	78.1616
788.957	83.937
798.773	92.9346
808.589	92.4372
818.405	96
828.221	95.2212
838.037	87.2473
847.853	97.1719
857.669	94.5991
867.485	92.1603
877.301	87.8552
887.117	90.9816
896.932	84.8044
906.748	83.5626
916.564	78.2277
926.38	76.1198
936.196	90.0357
946.012	80.7938
955.828	83.7212
965.644	79.6488
975.46	90.1924
985.276	87
995.092	77.2314
1004.91	95.8175
1014.72	92.6945
1024.54	101.756
1034.36	115.653
1044.17	107.051
1053.99	113.363
1063.8	126.474
1073.62	121.031
1083.44	127.354
1093.25	137.784
1103.07	138.85
1112.88	143.387
1122.7	152.977
1132.52	170.257
1142.33	180.966
1152.15	205.814
1161.96	208.665
1171.78	221.174
1181.6	233.715
1191.41	228.516
1201.23	243.776
1211.04	268.15
1220.86	277.821
1230.67	298.163
1240.49	308.607
1250.31	326.64
1260.12	344.165
1269.94	391.59
1279.75	424.21
1289.57	472.09
1299.39	540.205
1309.2	575.287
1319.02	669.804
1328.83	714.544
1338.65	785.69
1348.47	779.44
1358.28	760.505
1368.1	713.931
1377.91	628.991
1387.73	576.239
1397.55	529.714
1407.36	502.457
1417.18	440.198
1426.99	415.172
1436.81	405.016
1446.63	401.439
1456.44	375.016
1466.26	382.917
1476.07	387.452
1485.89	381.705
1495.71	392.742
1505.52	396.027
1515.34	391.076
1525.15	405.52
1534.97	422.036
1544.79	450.559
1554.6	499.625
1564.42	543.322
1574.23	630.2
1584.05	721.087
1593.86	783.085
1603.68	876.072
1613.5	811.135
1623.31	703.117
1633.13	521.488
1642.94	381.91
1652.76	303.946
1662.58	231.291
1672.39	190.128
1682.21	147.445
1692.02	125.801
1701.84	110.042
1711.66	94.883
1721.47	92.55
1731.29	86.0182
1741.1	83.5519
1750.92	77.8221
1760.74	70.5136
1770.55	69.8429
1780.37	61.6396
1790.18	66.0749
1800	72.8221
1809.82	71.4014
1819.63	72.1893
1829.45	70.6004
1839.26	63.3049
1849.08	66.4299
1858.9	68.0911
1868.71	63.2055
1878.53	70.5995
1888.34	71.5748
1898.16	59.0902
1907.98	63.0546
1917.79	65.2624
1927.61	59.5996
1937.42	67.3622
1947.24	71.5448
1957.06	68.1133
1966.87	61.5768
1976.69	68.1554
1986.5	69.057
1996.32	69.3306
2006.14	68.0042
2015.95	59.4468
2025.77	72.2333
2035.58	67.3977
2045.4	72.8231
2055.21	62.1574
2065.03	71.1698
2074.85	69.4592
2084.66	70.0763
2094.48	71.1512
2104.29	57.0734
2114.11	67.0981
2123.93	66.3596
2133.74	65.6428
2143.56	77.5728
2153.37	73.9616
2163.19	65.1572
2173.01	72.2343
2182.82	71.6551
2192.64	66.4656
2202.45	67.1369
2212.27	69.4419
2222.09	68.1127
2231.9	70.3681
2241.72	73.9975
2251.53	72.6333
2261.35	75.7252
2271.17	80.2264
2280.98	79.9527
2290.8	83.777
2300.61	75.4918
2310.43	81.7628
2320.25	87.1287
2330.06	105.238
2339.88	80.3835
2349.69	88.9402
2359.51	81.22
2369.33	87.7651
2379.14	89.4082
2388.96	89.8669
2398.77	95.9688
2408.59	92.4081
2418.41	100.365
2428.22	102.437
2438.04	107.105
2447.85	105.973
2457.67	103.601
2467.48	114.7
2477.3	113.871
2487.12	118.463
2496.93	116.817
2506.75	119.997
2516.56	118.792
2526.38	127.927
2536.2	124.694
2546.01	136.108
2555.83	136.917
2565.64	133.475
2575.46	147.545
2585.28	152.087
2595.09	148.998
2604.91	149.921
2614.72	162.777
2624.54	168.697
2634.36	185.828
2644.17	176.744
2653.99	192.242
2663.8	206.39
2673.62	218.236
2683.44	237.194
2693.25	217.322
2703.07	230.608
2712.88	213.064
2722.7	211.921
2732.52	198.746
2742.33	196.328
2752.15	189.732
2761.96	204.252
2771.78	189.087
2781.59	179.494
2791.41	179.607
2801.23	186.517
2811.04	184.186
2820.86	177.967
2830.67	181.956
2840.49	177.04
2850.31	196.16
2860.12	187.505
2869.94	186.891
2879.75	194.931
2889.57	192.005
2899.39	208.101
2909.2	199.242
2919.02	203.472
2928.83	208.023
2938.65	217.883
2948.47	206.703
2958.28	195.588
2968.1	190.641
2977.91	181.277
2987.73	174.877
2997.55	172.735
3000	175.177

File: Al - 4-3-10 - run3 - 10 microns - A_1.txt
200	72.1292
209.816	80.0661
219.632	80.9936
229.448	71.9011
239.264	72.7342
249.08	79.8677
258.896	75.4852
268.712	73.1369
278.528	73.5369
288.344	65.7383
298.16	68.9695
307.975	72.3111
317.791	64.8444
327.607	69.8978
337.423	67.3781
347.239	63.7284
357.055	67.6324
366.871	59.9703
376.687	66.4622
386.503	68.8943
396.319	66.8663
406.135	58.7389
415.951	60.1961
425.767	53.5097
435.583	61.5431
445.399	60.9096
455.215	55.5381
465.031	52.1306
474.847	55.0753
484.663	53.8321
494.479	54.2271
504.294	53.2633
514.11	44.3088
523.926	50.5598
533.742	54.4498
543.558	48.3966
553.374	53.3877
563.19	54.771
573.006	56.4221
582.822	51.9838
592.638	50.4796
602.454	53.5897
612.27	53.7291
622.086	49.7413
631.902	51.4945
641.718	55.61
651.534	66.3895
661.35	59.1032
671.166	61.6055
680.982	55.0293
690.798	56.0989
700.614	61.7872
710.429	65.9974
720.245	70.4294
730.061	66.1586
739.877	67.1322
749.693	67.5762
759.509	71.8432
769.325	80.1957
779.141	76.6294
788.957	70.7227
798.773	77.3047
808.589	73.307
818.405	76.7184
828.221	79.9337
838.037	79.8601
847.853	81.6586
857.669	82.1814
867.485	81.3259
877.301	80.5421
887.117	81.8525
896.932	71.7319
906.748	69.5346
916.564	67.7063
926.38	69.6747
936.196	69.4822
946.012	68.1588
955.828	70.9252
965.644	76.5092
975.46	64.1077
985.276	75.1121
995.092	71.9751
1004.91	71.1092
1014.72	71
1024.54	77.8009
1034.36	87.1753
1044.17	82.6913
1053.99	89.2253
1063.8	84.2902
1073.62	101.965
1083.44	96.9419
1093.25	91.5861
1103.07	105.754
1112.88	111.974
1122.7	112.598
1132.52	134.363
1142.33	145.391
1152.15	151.022
1161.96	156.333
1171.78	163.189
1181.6	171.216
1191.41	179.996
1201.23	175.049
1211.04	183.685
1220.86	182.817
1230.67	193.576
1240.49	205.363
1250.31	222.407
1260.12	227.924
1269.94	250.875
1279.75	285.137
1289.57	307.378
1299.39	340.297
1309.2	397.263
1319.02	421.804
1328.83	458.274
1338.65	476.237
1348.47	482.235
1358.28	464.726
1368.1	455.85
1377.91	389.489
1387.73	380.026
1397.55	335.399
1407.36	314.971
1417.18	309.724
1426.99	284.06
1436.81	281.768
1446.63	272.091
1456.44	277.446
1466.26	258.945
1476.07	261.944
1485.89	256.043
1495.71	264.635
1505.52	261.643
1515.34	261.883
1525.15	268.25
1534.97	271.107
1544.79	289.796
1554.6	323.529
1564.42	353.493
1574.23	379.982
1584.05	438.116
1593.86	496.587
1603.68	503.056
1613.5	463.227
1623.31	372.185
1633.13	297.69
1642.94	229.666
1652.76	194.507
1662.58	150.388
1672.39	125.111
1682.21	90.2183
1692.02	83.4817
1701.84	72.3758
1711.66	74.0473
1721.47	70.3664
1731.29	52.4043
1741.1	54.7962
1750.92	54.7826
1760.74	48.7389
1770.55	55.324
1780.37	54.3688
1790.18	47.7959
1800	50.401
1809.82	45.345
1819.63	51.6307
1829.45	50.9641
1839.26	47.2713
1849.08	47.0097
1858.9	44.4031
1868.71	46.5017
1878.53	52.0931
1888.34	50.7401
1898.16	47.5182
1907.98	49.4034
1917.79	55.5585
1927.61	57.6681
1937.42	51.6826
1947.24	51.6461
1957.06	51.118
1966.87	50.5805
1976.69	49.5999
1986.5	51.7807
1996.32	53.2631
2006.14	53.3968
2015.95	50.6252
2025.77	51.0678
2035.58	49.2678
2045.4	48.1798
2055.21	50.3934
2065.03	53.318
2074.85	55.1771
2084.66	54.8143
2094.48	55.2426
2104.29	60.9318
2114.11	49.8692
2123.93	47.9738
2133.74	56.1592
2143.56	54.0976
2153.37	57.8728
2163.19	50.31
2173.01	57.5487
2182.82	55.9537
2192.64	53.0055
2202.45	56.8771
2212.27	51.323
2222.09	54.2201
2231.9	56.6792
2241.72	59.4715
2251.53	60.1614
2261.35	57.983
2271.17	59.2896
2280.98	63.9493
2290.8	65.0882
2300.61	60.386
2310.43	60.102
2320.25	56.1501
2330.06	89.7743
2339.88	59.786
2349.69	61.1048
2359.51	68.128
2369.33	61.8975
2379.14	63.2348
2388.96	63.1679
2398.77	70.7149
2408.59	71.4569
2418.41	74.8732
2428.22	70.0488
2438.04	77.3471
2447.85	76.8566
2457.67	71.3136
2467.48	78.4477
2477.3	73.1318
2487.12	76.5506
2496.93	82.3003
2506.75	82.5465
2516.56	85.0871
2526.38	84.5402
2536.2	86.4814
2546.01	87.6319
2555.83	89.6114
2565.64	93.9125
2575.46	95.3186
2585.28	93.5449
2595.09	95.358
2604.91	94.6123
2614.72	110.075
2624.54	104.992
2634.36	112.023
2644.17	112.975
2653.99	123.554
2663.8	126.667
2673.62	117.221
2683.44	123.12
2693.25	116.158
2703.07	116.333
2712.88	122.496
2722.7	114.002
2732.52	122.352
2742.33	115.275
2752.15	114.475
2761.96	112.541
2771.78	105.853
2781.59	109.174
2791.41	111.239
2801.23	112.069
2811.04	111.834
2820.86	116.443
2830.67	108.622
2840.49	108.173
2850.31	119.772
2860.12	115.193
2869.94	118.021
2879.75	112.402
2889.57	115.777
2899.39	120.101
2909.2	121.944
2919.02	122.699
2928.83	113.015
2938.65	127.023
2948.47	119.657
2958.28	119.079
2968.1	112.051
2977.91	110.036
2987.73	104.93
2997.55	105.338
3000	102.729

File: Al - 4-3-10 - run3 - 10 microns - B_1.txt
200	75.6092
209.816	85.4148
219.632	87.2215
229.448	82.6044
239.264	79.6518
249.08	86.6482
258.896	90.7426
268.712	84.1417
278.528	79.2477
288.344	88.0012
298.16	83.642
307.975	79.24
317.791	79.1334
327.607	75.828
337.423	64.6667
347.239	79.7965
357.055	77.5341
366.871	73.8166
376.687	69.4497
386.503	74.6365
396.319	65
406.135	74.1888
415.951	65.7056
425.767	69.5441
435.583	66.0856
445.399	69.1161
455.215	71.3773
465.031	65.2748
474.847	63.4748
484.663	65.2112
494.479	57.1622
504.294	55.2092
514.11	57.7888
523.926	61.7093
533.742	62.27
543.558	60.6271
553.374	58.1543
563.19	55.5583
573.006	54.8225
582.822	64.4195
592.638	60.729
602.454	59.4666
612.27	66.5105
622.086	62.7893
631.902	65.9286
641.718	66.8367
651.534	61.3965
661.35	65.6646
671.166	66.0546
680.982	70.2438
690.798	71.3187
700.614	60.6064
710.429	67.2377
720.245	66.1355
730.061	72.6391
739.877	69.9119
749.693	77.1993
759.509	75.0356
769.325	74.9348
779.141	85.1367
788.957	77.9694
798.773	85.7035
808.589	87.9364
818.405	82.6584
828.221	87.4652
838.037	87.828
847.853	99.8345
857.669	89.8818
867.485	90.6754
877.301	81.3468
887.117	84.6835
896.932	82.8747
906.748	74.2396
916.564	75.4389
926.38	67.4018
936.196	80.3303
946.012	73.8044
955.828	79.2214
965.644	67.0166
975.46	73.4296
985.276	73.68
995.092	83.3673
1004.91	88.6854
1014.72	87.2706
1024.54	92.5783
1034.36	94.4464
1044.17	92.964
1053.99	104.402
1063.8	101.141
1073.62	111.873
1083.44	108.333
1093.25	110.91
1103.07	125.087
1112.88	141.502
1122.7	131.85
1132.52	151.499
1142.33	162.894
1152.15	174.471
1161.96	182.253
1171.78	193.11
1181.6	203.247
1191.41	202.639
1201.23	203.809
1211.04	213.351
1220.86	228.766
1230.67	239.128
1240.49	250.455
1250.31	256.598
1260.12	289.852
1269.94	307.525
1279.75	343.186
1289.57	381.569
1299.39	426.783
1309.2	461.443
1319.02	496.002
1328.83	512.68
1338.65	512.507
1348.47	522.28
1358.28	502.278
1368.1	479.272
1377.91	465.511
1387.73	408.954
1397.55	382.985
1407.36	355.365
1417.18	336.212
1426.99	321.324
1436.81	307.285
1446.63	295.931
1456.44	297.15
1466.26	300.93
1476.07	302.959
1485.89	289.068
1495.71	291.66
1505.52	290.094
1515.34	296.069
1525.15	294.059
1534.97	300.707
1544.79	321.588
1554.6	349.621
1564.42	372.314
1574.23	404.969
1584.05	479.574
1593.86	556.378
1603.68	597.473
1613.5	543.995
1623.31	415.94
1633.13	299.728
1642.94	250.234
1652.76	200.69
1662.58	160.283
1672.39	126.905
1682.21	108.408
1692.02	91.2421
1701.84	86.4567
1711.66	72.3563
1721.47	69.8155
1731.29	69.7558
1741.1	64.588
1750.92	56.1621
1760.74	64.7389
1770.55	56.6448
1780.37	57.7646
1790.18	50.6258
1800	56.8591
1809.82	56.2832
1819.63	60.928
1829.45	67.5258
1839.26	57.0736
1849.08	61.2464
1858.9	53.6957
1868.71	54.7944
1878.53	52.7445
1888.34	67.0011
1898.16	59.2817
1907.98	57.6045
1917.79	54.4769
1927.61	50.5335
1937.42	58.4358
1947.24	50.6591
1957.06	48.9091
1966.87	61.1273
1976.69	54.0668
1986.5	56.4342
1996.32	52.0193
2006.14	62.1861
2015.95	54.1244
2025.77	56.6381
2035.58	55.017
2045.4	60.4956
2055.21	52.9421
2065.03	57.1707
2074.85	48.2226
2084.66	57.262
2094.48	56.0306
2104.29	55.3962
2114.11	56.1113
2123.93	56.0673
2133.74	59.6861
2143.56	60.7624
2153.37	56.9112
2163.19	54.7368
2173.01	65.1601
2182.82	60.6493
2192.64	57.9559
2202.45	59.2104
2212.27	60.444
2222.09	66.0576
2231.9	91.399
2241.72	64.4807
2251.53	65.0039
2261.35	59.437
2271.17	63.049
2280.98	70.1798
2290.8	71.9935
2300.61	66.6846
2310.43	70.9798
2320.25	67.8536
2330.06	87.6636
2339.88	72.4424
2349.69	62.9345
2359.51	69.1758
2369.33	71.9786
2379.14	70.3695
2388.96	79.2539
2398.77	77.8214
2408.59	70.2377
2418.41	80.0684
2428.22	81.5357
2438.04	81.7972
2447.85	82.6333
2457.67	79.0849
2467.48	85.3989
2477.3	87.6771
2487.12	92.6464
2496.93	83.5073
2506.75	91.0023
2516.56	91.9602
2526.38	93.1075
2536.2	94.1364
2546.01	100.368
2555.83	103.731
2565.64	103.192
2575.46	107.189
2585.28	106.451
2595.09	106.336
2604.91	109.386
2614.72	115.054
2624.54	111.261
2634.36	125.995
2644.17	112.456
2653.99	120.693
2663.8	127.997
2673.62	129.735
2683.44	130.441
2693.25	115.142
2703.07	125.392
2712.88	126.56
2722.7	117.618
2732.52	126.077
2742.33	113.971
2752.15	128.606
2761.96	118.69
2771.78	124.427
2781.59	119.12
2791.41	122.025
2801.23	116.943
2811.04	125.401
2820.86	141.768
2830.67	121.599
2840.49	127.258
2850.31	128.442
2860.12	127.817
2869.94	139.39
2879.75	120.172
2889.57	138.647
2899.39	138.395
2909.2	134.501
2919.02	146.126
2928.83	140.525
2938.65	141.774
2948.47	133.406
2958.28	134.201
2968.1	120.769
2977.91	128.056
2987.73	125.124
2997.55	112.047
3000	108.187

File: Al - 4-3-10 - run3 - 25 microns - A_1.txt
200	60.0319
209.816	69
219.632	72.6187
229.448	70.37
239.264	71.3024
249.08	73.5159
258.896	67.277
268.712	69.3768
278.528	66.4277
288.344	64.3907
298.16	72.9848
307.975	61.0267
317.791	66.3445
327.607	61.7011
337.423	63.495
347.239	57.8302
357.055	70.9
366.871	67.9698
376.687	58.7547
386.503	60.0566
396.319	56.3333
406.135	56.3678
415.951	56.0002
425.767	59.9118
435.583	52.476
445.399	52.9377
455.215	56.1269
465.031	55.117
474.847	54.7484
484.663	56.0458
494.479	42.3784
504.294	47.0621
514.11	49.3104
523.926	46.1495
533.742	49.3097
543.558	49.6508
553.374	50.6228
563.19	47.5359
573.006	48.3333
582.822	53.769
592.638	51.9703
602.454	52.9692
612.27	47.0206
622.086	55.6719
631.902	58.7179
641.718	51.6356
651.534	55.621
661.35	56.0754
671.166	52.8368
680.982	57.3781
690.798	59.4065
700.614	58.2886
710.429	67.9017
720.245	58.9376
730.061	66.2643
739.877	60.9582
749.693	68.1089
759.509	68.1278
769.325	69.1841
779.141	67.6418
788.957	69.3877
798.773	69.7894
808.589	78.3178
818.405	79.4741
828.221	73.0529
838.037	70.7311
847.853	75.0388
857.669	72.8439
867.485	80.8411
877.301	70.4209
887.117	72.6482
896.932	67.6442
906.748	65.7256
916.564	57.0726
926.38	63.9406
936.196	61.4465
946.012	62.1798
955.828	67.2874
965.644	59.6138
975.46	71.2039
985.276	64.6205
995.092	70.8753
1004.91	71.3521
1014.72	74.479
1024.54	82.6676
1034.36	82.8385
1044.17	83.5599
1053.99	91.9126
1063.8	87.0804
1073.62	83.4949
1083.44	97.0392
1093.25	99.4143
1103.07	108.039
1112.88	113.169
1122.7	104.639
1132.52	121.955
1142.33	125.595
1152.15	136.87
1161.96	152.086
1171.78	150.095
1181.6	157.951
1191.41	161.089
1201.23	157.033
1211.04	182.014
1220.86	175.144
1230.67	186.82
1240.49	207.027
1250.31	216.413
1260.12	232.967
1269.94	244.116
1279.75	276.382
1289.57	304.714
1299.39	335.45
1309.2	391.981
1319.02	409.659
1328.83	457.706
1338.65	492.273
1348.47	487.168
1358.28	469.92
1368.1	453.678
1377.91	406.236
1387.73	359.848
1397.55	346.249
1407.36	311.578
1417.18	273.459
1426.99	283.394
1436.81	264.765
1446.63	272.434
1456.44	257.502
1466.26	256.629
1476.07	242.082
1485.89	245.974
1495.71	256.124
1505.52	250.753
1515.34	256.121
1525.15	257.074
1534.97	267.37
1544.79	290.069
1554.6	315.307
1564.42	341.074
1574.23	399.888
1584.05	439.582
1593.86	509.738
1603.68	526.826
1613.5	488.391
1623.31	402.332
1633.13	297.239
1642.94	237.092
1652.76	180.982
1662.58	145.51
1672.39	114.175
1682.21	93.4817
1692.02	73.9293
1701.84	70.2111
1711.66	63.261
1721.47	54.1314
1731.29	57.979
1741.1	53.5945
1750.92	48.1621
1760.74	50.2071
1770.55	48.1544
1780.37	40.1167
1790.18	49.2655
1800	49.7915
1809.82	53.4839
1819.63	48.8652
1829.45	48.3416
1839.26	47.3333
1849.08	46.7294
1858.9	47.8992
1868.71	48.1748
1878.53	45.8528
1888.34	46.4073
1898.16	42.4258
1907.98	46.8837
1917.79	50.7695
1927.61	44.3329
1937.42	44.7677
1947.24	53.1629
1957.06	43.7322
1966.87	45.839
1976.69	45.3331
1986.5	47.2763
1996.32	46.0895
2006.14	53.2454
2015.95	52.3677
2025.77	48.6298
2035.58	51.6486
2045.4	52.5306
2055.21	49.1388
2065.03	48.1707
2074.85	49.6002
2084.66	48.7058
2094.48	50.1818
2104.29	45.3727
2114.11	49.3139
2123.93	47.8502
2133.74	47.1839
2143.56	48.3996
2153.37	48.057
2163.19	53.4097
2173.01	53.5982
2182.82	57.5856
2192.64	50.9366
2202.45	52.4208
2212.27	48.1807
2222.09	55.3547
2231.9	52.4642
2241.72	54.8629
2251.53	54.56
2261.35	54.2932
2271.17	55.4857
2280.98	58.9691
2290.8	51.717
2300.61	55.9693
2310.43	55.0558
2320.25	51.6098
2330.06	71.0856
2339.88	59.2145
2349.69	60.9607
2359.51	62.5328
2369.33	61.7456
2379.14	58.4151
2388.96	67.356
2398.77	63.4902
2408.59	66.0951
2418.41	63.2997
2428.22	74.1967
2438.04	71.9157
2447.85	75.9721
2457.67	71.2769
2467.48	74.4029
2477.3	77.0755
2487.12	78.4376
2496.93	80.6867
2506.75	78.0046
2516.56	81.8596
2526.38	77.8556
2536.2	84.3454
2546.01	88.7747
2555.83	88.2578
2565.64	95.0027
2575.46	85.2809
2585.28	95.6441
2595.09	96.6863
2604.91	102.121
2614.72	106.577
2624.54	112.599
2634.36	111.492
2644.17	112.768
2653.99	130.401
2663.8	128.369
2673.62	128.163
2683.44	136.654
2693.25	132.901
2703.07	134.706
2712.88	128.29
2722.7	116.028
2732.52	119.191
2742.33	120.825
2752.15	120.479
2761.96	113.781
2771.78	117.267
2781.59	117.32
2791.41	118.145
2801.23	104.954
2811.04	105.028
2820.86	108.034
2830.67	116.625
2840.49	103.092
2850.31	117.623
2860.12	124.097
2869.94	113.203
2879.75	118.31
2889.57	121.447
2899.39	113.753
2909.2	122.61
2919.02	129.982
2928.83	124.997
2938.65	127.264
2948.47	122.495
2958.28	119.667
2968.1	120.026
2977.91	116.146
2987.73	103.105
2997.55	106.342
3000	98.7916