Folder: Graphs/Example Data/Raman/CNT - TIM/Raytheon/Al foil/2010/04-03-10 (part 2)

File: Al - 4-3-10 - run3 - 25 microns - B_2.txt
200	62.8197
209.816	70.5484
219.632	70.2151
229.448	66.0549
239.264	75.6964
249.08	70.8978
258.896	67.1584
268.712	69.5781
278.528	70.481
288.344	62.1757
298.16	64.6972
307.975	58.9689
317.791	63.0889
327.607	63.5731
337.423	65.8484
347.239	59.2253
357.055	57.2675
366.871	61.6958
376.687	54.5818
386.503	44.507
396.319	59.7665
406.135	57.3333
415.951	52.6278
425.767	50.1601
435.583	46.2377
445.399	54.2065
455.215	53.4196
465.031	55.1411
474.847	42.1038
484.663	54.3792
494.479	48.2271
504.294	49.6046
514.11	45.9296
523.926	39.188
533.742	47.2565
543.558	46.5673
553.374	47.5947
563.19	47.4397
573.006	46.4632
582.822	47.1823
592.638	48.0839
602.454	47.8
612.27	44.6457
622.086	48.3412
631.902	48.707
641.718	52.4278
651.534	48.0807
661.35	48.002
671.166	52.8639
680.982	53.2084
690.798	55.4177
700.614	51.8941
710.429	55.4622
720.245	58.5255
730.061	56.0437
739.877	60.409
749.693	64.139
759.509	60.5257
769.325	66.2003
779.141	61.8926
788.957	68.6973
798.773	68.0859
808.589	69.9581
818.405	66.2134
828.221	70.3563
838.037	79.1828
847.853	66.4682
857.669	71.3797
867.485	70.1603
877.301	64.9731
887.117	62.6282
896.932	59.4109
906.748	61.9651
916.564	53.7789
926.38	53.2225
936.196	56.5087
946.012	60.4921
955.828	58.6609
965.644	59.3505
975.46	64.882
985.276	66.0461
995.092	64.9252
1004.91	61.9813
1014.72	65.1042
1024.54	66.8668
1034.36	75.0208
1044.17	84.9803
1053.99	82.3483
1063.8	86.4397
1073.62	84.0777
1083.44	92.8947
1093.25	85.2704
1103.07	96.8499
1112.88	100.199
1122.7	97.2372
1132.52	108.545
1142.33	121.541
1152.15	131.4
1161.96	141.585
1171.78	144.796
1181.6	148.512
1191.41	153.175
1201.23	160.41
1211.04	152.792
1220.86	166.916
1230.67	182.715
1240.49	196.392
1250.31	203.36
1260.12	212.397
1269.94	240.345
1279.75	258.701
1289.57	299.48
1299.39	333.676
1309.2	375.801
1319.02	427.181
1328.83	473.703
1338.65	508.628
1348.47	500.389
1358.28	484.42
1368.1	443.661
1377.91	392.628
1387.73	356.276
1397.55	320.476
1407.36	294.274
1417.18	275.043
1426.99	268.693
1436.81	234.949
1446.63	242.571
1456.44	233.083
1466.26	232.222
1476.07	224.448
1485.89	227.15
1495.71	227.87
1505.52	228.323
1515.34	235.59
1525.15	241.247
1534.97	250.003
1544.79	261.098
1554.6	296.577
1564.42	327.662
1574.23	373.117
1584.05	442.698
1593.86	490.974
1603.68	518.542
1613.5	472.807
1623.31	402.258
1633.13	295.896
1642.94	230.718
1652.76	169.905
1662.58	143.173
1672.39	109.445
1682.21	88.9617
1692.02	78.7469
1701.84	68.5014
1711.66	52.1177
1721.47	57.1984
1731.29	47.0341
1741.1	44.9639
1750.92	46.6904
1760.74	44.4864
1770.55	44.8648
1780.37	41.6844
1790.18	44.1427
1800	46.5419
1809.82	44.9086
1819.63	41.1893
1829.45	47.6197
1839.26	42.5478
1849.08	46.7923
1858.9	42.626
1868.71	48.0793
1878.53	45.6255
1888.34	49.7972
1898.16	45.1441
1907.98	42.403
1917.79	39.5337
1927.61	41.8635
1937.42	40.7229
1947.24	45.219
1957.06	45.6077
1966.87	43.5394
1976.69	44.2889
1986.5	45.0263
1996.32	46.168
2006.14	37.6726
2015.95	42.6847
2025.77	45.5809
2035.58	43.2768
2045.4	46.3596
2055.21	41.1016
2065.03	43.3957
2074.85	47.3112
2084.66	46.2209
2094.48	48.3935
2104.29	38.685
2114.11	50.0981
2123.93	41.6029
2133.74	50.1114
2143.56	42.8306
2153.37	53.3333
2163.19	43.8706
2173.01	49.3333
2182.82	46.7767
2192.64	46.5413
2202.45	46.8137
2212.27	49.1013
2222.09	49.0092
2231.9	48.0477
2241.72	45.8625
2251.53	45.6208
2261.35	51.0481
2271.17	49.434
2280.98	51.9928
2290.8	53.3136
2300.61	49.9152
2310.43	58.8516
2320.25	55.8168
2330.06	67.644
2339.88	54.4041
2349.69	52.993
2359.51	57.4891
2369.33	56.617
2379.14	60.3933
2388.96	56.9063
2398.77	61.9124
2408.59	62.5515
2418.41	62.5094
2428.22	62.8172
2438.04	70.1904
2447.85	67.7985
2457.67	69.9618
2467.48	70.1582
2477.3	71.5244
2487.12	75.4213
2496.93	72.7699
2506.75	75.5734
2516.56	73.2919
2526.38	77.2512
2536.2	83.4704
2546.01	74.5976
2555.83	83.9435
2565.64	95.6443
2575.46	85.7185
2585.28	89.1602
2595.09	90.9701
2604.91	93.0896
2614.72	95.0688
2624.54	100.166
2634.36	107.546
2644.17	111.618
2653.99	117.64
2663.8	117.609
2673.62	128.779
2683.44	130.288
2693.25	127.387
2703.07	128.059
2712.88	129.096
2722.7	124.439
2732.52	124.86
2742.33	120.479
2752.15	119.179
2761.96	108.529
2771.78	110.274
2781.59	108.24
2791.41	110.696
2801.23	101.839
2811.04	105.715
2820.86	106.692
2830.67	106.262
2840.49	102.761
2850.31	100.819
2860.12	106.387
2869.94	113.077
2879.75	118.851
2889.57	112.919
2899.39	118.202
2909.2	119.555
2919.02	119.012
2928.83	122.874
2938.65	124.287
2948.47	117.765
2958.28	127.081
2968.1	108.718
2977.91	109.479
2987.73	107.895
2997.55	94.5342
3000	93.0312