Folder: Graphs/Example Data/Raman/CNT - TIM/Raytheon/Al foil/2010/04-20-10

Note: README.md
# Graphs
A macOS app that manages the organization of data files and graphs them.

Licensed under the MIT licensing terms: https://opensource.org/licenses/MIT

Hildreth wrote the precursor to Graphs, then called GraphBase, during his Ph.D. to help manage the data he was collecting as part of his research on Metal-assisted Chemical Etching of Silicon.  He was becoming overwhelmed by the hundreds of data files he was collecting every week and was inspired by the Papers and iTunes applications on OS X (now macOS) to create an application that managed data.  GraphBase provided an easy template to create a parser, a simple UI to organize data into hiarchical folders, and leveraged the DataGraph framework (http://www.visualdatatools.com/DataGraph/Framework/) for graphing.  DataGraph (http://www.visualdatatools.com/DataGraph/) is an amazing 2D graphing application and you will need to purchase a DataGraph license from Visual Data Tools in order to use Graphs.

Graphs is a rewrite of GraphBase in Swift written by Connor and then re-written again by Hildreth that has been open sourced for use by all.  Please not that you will need a DataGraph license to create the graph templates used by the DataGraph framework underlying Graphs.  Hildreth plans to continue evolving this application.  The next plan improvements are: multithreading for import and parsing using the new Results type in Swift; and begin switching over to SwiftUI for the UI.  Long term, we hope to add support for data analysis and extraction.

# Overview
Graphs is a data management tool that allows you to store your raw data files in a text formate (CSV, tab delimited, etc.) and then have those files parsed and graphed when selected.  Graphs uses the DataGraph fromework 

To use Graphs, first you create an example graph, what we call a Graph Template, in DataGraph.  Format the graph the way you want it to look and make sure that the Data Columns are in the same order as the columns in your data.  Next, you  add your "Graph Template" to Graphs using either the Graph Template Inspector on the right side of Graphs using using the "+" sign on the bottom left of the application.  You can also drag-and-drop the file onto a folder in the Source List.  Once you add a Graph Template, you can assign it to be the default Graph Template for a folder and any sub-folders using the Folder Inspector.

The second step is to make a Paser using the Parser Inspector.  It might be helpful to have an example file already in Graphs (see Step 3) because you can use the Text Inspector to see what lines your Experimental Details, Header, and Data start at.  Add a Parse Template using the + sign in the Parse Inspector's table and give the Parse Template a name.  If your data has experimental details at the top, then select the checkbox and set the starting and ending lines for this information.  If your data has a Header, select the Header checkbox, give it starting and ending line numbers, and then select the type of s

File: R1 - 15 microns - sideA.txt
300	111.222
306.533	110.319
313.067	109.012
319.6	107.224
326.134	104.544
332.667	96.8458
339.201	102.461
345.734	103.659
352.267	104.163
358.801	98.4065
365.334	104.101
371.868	105.93
378.401	105.617
384.935	104.951
391.468	107.263
398.002	101.244
404.535	94.2511
411.068	93.3709
417.602	88.6793
424.135	101.529
430.669	91.7524
437.202	83.7599
443.736	92.3033
450.269	96.0488
456.802	97.7293
463.336	87.5684
469.869	95.8345
476.403	80.4284
482.936	88.6667
489.47	84.6033
496.003	84.895
502.536	85.0728
509.07	87.0447
515.603	86.3319
522.137	91.7903
528.67	82.0047
535.204	87.6073
541.737	84.8801
548.271	83.7353
554.804	82.7206
561.337	90.2816
567.871	83.3822
574.404	76.9332
580.938	85.0927
587.471	82.5345
594.005	81.4051
600.538	86.6567
607.071	85.4834
613.605	82.1882
620.138	85.1558
626.672	89.2639
633.205	83.045
639.739	86.3115
646.272	85.1879
652.806	82.5443
659.339	89.5436
665.872	85.067
672.406	96.8463
678.939	98.3885
685.473	88.8666
692.006	92.0983
698.54	96.4376
705.073	95.2085
711.606	98.5279
718.14	94.2335
724.673	92.4129
731.207	89.5517
737.74	105.879
744.274	99.5657
750.807	100.036
757.341	109.405
763.874	92.4821
770.407	100.699
776.941	101.651
783.474	96.3414
790.008	97.1227
796.541	101
803.075	98.6157
809.608	99.5724
816.141	100.663
822.675	105.539
829.208	109.547
835.742	112.632
842.275	117.507
848.809	107.271
855.342	112.683
861.875	113.3
868.409	110.044
874.942	108.518
881.476	107.578
888.009	100.923
894.543	97.7987
901.076	103.357
907.61	96.9178
914.143	104.958
920.676	89.9019
927.21	108.782
933.743	93.3409
940.277	98.2511
946.81	99.5936
953.344	104.037
959.877	104.289
966.41	91.55
972.944	102.431
979.477	94.5102
986.011	104.282
992.544	110.63
999.078	111.231
1005.61	108.351
1012.14	117.38
1018.68	110.465
1025.21	118.524
1031.74	111.832
1038.28	128.012
1044.81	131.147
1051.35	132.764
1057.88	137.757
1064.41	132.219
1070.95	133.69
1077.48	135.797
1084.01	145.958
1090.55	147.56
1097.08	145.404
1103.61	151.619
1110.15	163.097
1116.68	161.978
1123.21	157.285
1129.75	184.803
1136.28	180.506
1142.81	174.104
1149.35	192.348
1155.88	179.943
1162.41	211.829
1168.95	211.5
1175.48	223.932
1182.01	217.776
1188.55	216.101
1195.08	231.553
1201.61	230.66
1208.15	234.384
1214.68	249.686
1221.21	252.754
1227.75	252.776
1234.28	268.913
1240.81	282.492
1247.35	296.999
1253.88	303.795
1260.42	314.927
1266.95	338.989
1273.48	354.18
1280.02	373.974
1286.55	398.658
1293.08	432.423
1299.62	447.475
1306.15	466.661
1312.68	519.905
1319.22	552.392
1325.75	552.679
1332.28	582.744
1338.82	608.458
1345.35	607.041
1351.88	585.724
1358.42	559.345
1364.95	539.189
1371.48	535.778
1378.02	510.59
1384.55	467.442
1391.08	447.862
1397.62	428.641
1404.15	405.321
1410.68	395.773
1417.22	375.705
1423.75	359.821
1430.28	358.442
1436.82	344.933
1443.35	338.908
1449.88	335.135
1456.42	332.292
1462.95	332.768
1469.48	335.342
1476.02	324.236
1482.55	344.181
1489.09	330.923
1495.62	346.301
1502.15	332.51
1508.69	344.082
1515.22	340.142
1521.75	352.148
1528.29	363.752
1534.82	367.517
1541.35	396.37
1547.89	406.048
1554.42	427.958
1560.95	470.292
1567.49	492.95
1574.02	556.313
1580.55	579.177
1587.09	606.876
1593.62	629.503
1600.15	618.914
1606.69	603.019
1613.22	560.074
1619.75	489.363
1626.29	427.5
1632.82	349.535
1639.35	309.615
1645.89	256.342
1652.42	232.084
1658.95	194.784
1665.49	179.854
1672.02	155.201
1678.55	137.313
1685.09	137.508
1691.62	127.186
1698.16	116.108
1704.69	108.101
1711.22	96.0644
1717.76	103.356
1724.29	96.4044
1730.82	89.4697
1737.36	93.8099
1743.89	91.0325
1750.42	91.0446
1756.96	90.3657
1763.49	86.2641
1770.02	89.447
1776.56	83.2823
1783.09	90.6378
1789.62	84.9696
1796.16	90.85
1802.69	83.4888
1809.22	85.1435
1815.76	80.0366
1822.29	83.067
1828.82	79.1348
1835.36	77.995
1841.89	80.3214
1848.42	82.9206
1854.96	79.9576
1861.49	70.1611
1868.02	83.907
1874.56	86.6781
1881.09	83.5857
1887.62	83.4243
1894.16	77.5589
1900.69	76.0104
1907.23	79.5662
1913.76	75.5823
1920.29	80.3617
1926.83	79.4385
1933.36	77.6678
1939.89	76.832
1946.43	77.3569
1952.96	83.6535
1959.49	77.3702
1966.03	73.082
1972.56	80.3897
1979.09	76.9828
1985.63	77.4634
1992.16	79.088
1998.69	81.9029
2000	80.761

File: R1 - 15 microns - sideB.txt
300	71.5925
306.533	75.2957
313.067	69.9285
319.6	78.4964
326.134	67.753
332.667	60.2518
339.201	63.2819
345.734	57.2217
352.267	68.1531
358.801	61.0457
365.334	63.2974
371.868	69.3992
378.401	62.0283
384.935	62.091
391.468	59.5618
398.002	65.0891
404.535	62.5619
411.068	61.277
417.602	56.1624
424.135	54.3042
430.669	62.7715
437.202	60.9601
443.736	63.7526
450.269	53.1774
456.802	53.9255
463.336	60.4509
469.869	59.41
476.403	54.5239
482.936	60.2685
489.47	51.3657
496.003	49.1719
502.536	52.0471
509.07	51.7165
515.603	50.055
522.137	46.1142
528.67	44.6771
535.204	53.2944
541.737	48.8949
548.271	46.5237
554.804	50.2983
561.337	55.5762
567.871	49.0513
574.404	52.3324
580.938	51.641
587.471	51.8269
594.005	47.8886
600.538	48.552
607.071	50.7979
613.605	51.8405
620.138	58.1025
626.672	56.671
633.205	51.2202
639.739	61.4673
646.272	61.4373
652.806	64.6366
659.339	54.7306
665.872	50.5419
672.406	66.4105
678.939	62.0771
685.473	61.4667
692.006	53.2742
698.54	57.8104
705.073	68.2695
711.606	59.5587
718.14	60.3922
724.673	61.4235
731.207	61.9119
737.74	55.227
744.274	62.101
750.807	66.2534
757.341	68.2143
763.874	61.8512
770.407	68.5167
776.941	61.7172
783.474	72.7051
790.008	67.02
796.541	73.0267
803.075	67.1542
809.608	77.6772
816.141	71.6367
822.675	72.7328
829.208	76.8981
835.742	80.2724
842.275	77.3448
848.809	85.4173
855.342	83.4044
861.875	79.2659
868.409	74.542
874.942	77.8673
881.476	75.0296
888.009	72.5308
894.543	69.4438
901.076	67.131
907.61	68.0807
914.143	64.1432
920.676	67.4337
927.21	62.391
933.743	61.004
940.277	65.325
946.81	69.8943
953.344	61.1734
959.877	65.0716
966.41	65.7166
972.944	73.0327
979.477	70.7599
986.011	64.554
992.544	65.9245
999.078	73.3148
1005.61	69.8766
1012.14	70.4805
1018.68	75.1312
1025.21	78.691
1031.74	82.6016
1038.28	79.5014
1044.81	80.9881
1051.35	78.4645
1057.88	87.3771
1064.41	95.2684
1070.95	85.3333
1077.48	89.6413
1084.01	88.8221
1090.55	93.0931
1097.08	99.3376
1103.61	101.2
1110.15	112.882
1116.68	109.144
1123.21	109.823
1129.75	117.168
1136.28	127.68
1142.81	138.665
1149.35	142.896
1155.88	140.393
1162.41	149.282
1168.95	164.934
1175.48	157.089
1182.01	157.725
1188.55	167.842
1195.08	165.691
1201.61	171.414
1208.15	183.127
1214.68	192.19
1221.21	184.229
1227.75	197.875
1234.28	216.299
1240.81	223.198
1247.35	224.865
1253.88	237.411
1260.42	252.533
1266.95	270.118
1273.48	290.682
1280.02	307.966
1286.55	326.22
1293.08	349.159
1299.62	379.945
1306.15	414.172
1312.68	439.947
1319.22	495.513
1325.75	544.6
1332.28	573.345
1338.82	598.738
1345.35	613.792
1351.88	628.697
1358.42	626.625
1364.95	572.309
1371.48	536.916
1378.02	500.679
1384.55	464.461
1391.08	437.192
1397.62	409.202
1404.15	377.096
1410.68	357.132
1417.22	346.973
1423.75	319.143
1430.28	303.434
1436.82	302.841
1443.35	291.533
1449.88	298.45
1456.42	283.416
1462.95	285.36
1469.48	277.566
1476.02	277.093
1482.55	280.262
1489.09	270.18
1495.62	278.338
1502.15	283.082
1508.69	265.809
1515.22	281.95
1521.75	287.841
1528.29	293.113
1534.82	316.362
1541.35	308.006
1547.89	342.814
1554.42	351.097
1560.95	404.565
1567.49	404.912
1574.02	440.931
1580.55	493.784
1587.09	538.648
1593.62	599.129
1600.15	624.415
1606.69	636.563
1613.22	619.367
1619.75	569.118
1626.29	516.992
1632.82	417.455
1639.35	339.964
1645.89	296.319
1652.42	236.966
1658.95	209.597
1665.49	170.849
1672.02	147.347
1678.55	114.961
1685.09	107.204
1691.62	92.6969
1698.16	82.6702
1704.69	73.2634
1711.22	74.005
1717.76	64.5481
1724.29	63.5568
1730.82	66.9585
1737.36	64.9036
1743.89	53.9614
1750.42	55.217
1756.96	51.7876
1763.49	51.3647
1770.02	58.4641
1776.56	50.9691
1783.09	53.5354
1789.62	50.4237
1796.16	52.8263
1802.69	49.1629
1809.22	49.0373
1815.76	54.939
1822.29	42.8685
1828.82	44.1773
1835.36	51.0007
1841.89	58.1252
1848.42	51.4139
1854.96	49.588
1861.49	52.6897
1868.02	49.6046
1874.56	52.8545
1881.09	51.7212
1887.62	45.7171
1894.16	51.5564
1900.69	50.3581
1907.23	46.5913
1913.76	48.9544
1920.29	48.0254
1926.83	53.7167
1933.36	53.2873
1939.89	52.2506
1946.43	45.6498
1952.96	53.1133
1959.49	53.222
1966.03	51.6917
1972.56	58.8103
1979.09	47.043
1985.63	53.1447
1992.16	46.1258
1998.69	55.5372
2000	58.4926

File: R1 - 25 microns - sideA.txt
300	92.185
306.533	99.7796
313.067	96.0121
319.6	93.5501
326.134	92.4946
332.667	91.3533
339.201	85.4989
345.734	101.51
352.267	91.0441
358.801	81.3659
365.334	83.8464
371.868	90.2791
378.401	85.6242
384.935	81.6894
391.468	81.4406
398.002	84.8449
404.535	83.9666
411.068	89.1878
417.602	80.2511
424.135	76.8339
430.669	82.0857
437.202	81.0533
443.736	78.4531
450.269	83.9726
456.802	80.3254
463.336	80.3462
469.869	77.042
476.403	80.9028
482.936	74.7408
489.47	78.4191
496.003	79.9331
502.536	72.5282
509.07	69.8876
515.603	68.5557
522.137	71.1142
528.67	67.0095
535.204	70.6469
541.737	59.7717
548.271	72.6338
554.804	75.7693
561.337	67.7184
567.871	72.3598
574.404	69.0009
580.938	79.3902
587.471	71.1146
594.005	71.0992
600.538	70.2095
607.071	74.5449
613.605	71.9353
620.138	72.1145
626.672	75.8274
633.205	77.7233
639.739	87.3958
646.272	83.792
652.806	89.1525
659.339	78.8246
665.872	77.1507
672.406	90.1284
678.939	84.5288
685.473	79.1331
692.006	79.5691
698.54	84.9084
705.073	77.8072
711.606	89.414
718.14	73.4938
724.673	83.892
731.207	79.8786
737.74	84.2413
744.274	93.7929
750.807	81.7087
757.341	99.5238
763.874	92.516
770.407	93.9673
776.941	86.7733
783.474	94.6264
790.008	96.2933
796.541	98.6841
803.075	95.2139
809.608	92.5113
816.141	97.6067
822.675	104.237
829.208	109.521
835.742	112.887
842.275	104.394
848.809	112.213
855.342	111.404
861.875	116.148
868.409	108.815
874.942	109.027
881.476	102.853
888.009	98.3495
894.543	95.3881
901.076	89.6041
907.61	94.9383
914.143	92.9403
920.676	91.6436
927.21	92.8881
933.743	90.339
940.277	88.5681
946.81	90.6582
953.344	99.4733
959.877	95.5694
966.41	95.35
972.944	98.2288
979.477	102.916
986.011	98.507
992.544	97.1725
999.078	105.082
1005.61	107.097
1012.14	111.714
1018.68	111.766
1025.21	110.967
1031.74	121.978
1038.28	125.257
1044.81	130.076
1051.35	127.832
1057.88	130.987
1064.41	127.003
1070.95	131.4
1077.48	147.448
1084.01	159.887
1090.55	158.027
1097.08	152.942
1103.61	163.587
1110.15	171.376
1116.68	168.35
1123.21	184.812
1129.75	184.107
1136.28	193.236
1142.81	192.821
1149.35	206.5
1155.88	223.712
1162.41	221.893
1168.95	218.552
1175.48	228.542
1182.01	235.426
1188.55	233.993
1195.08	247.455
1201.61	256.581
1208.15	249.139
1214.68	258.467
1221.21	279.834
1227.75	292.084
1234.28	284.588
1240.81	319.941
1247.35	314.273
1253.88	346.305
1260.42	349.087
1266.95	369.569
1273.48	393.417
1280.02	432.478
1286.55	450.071
1293.08	480.545
1299.62	520.291
1306.15	555.267
1312.68	604.372
1319.22	653.13
1325.75	698.237
1332.28	734.135
1338.82	771.938
1345.35	786.763
1351.88	792.018
1358.42	780.794
1364.95	755.198
1371.48	698.275
1378.02	640.417
1384.55	615.028
1391.08	576.779
1397.62	535.768
1404.15	512.003
1410.68	469.709
1417.22	443.492
1423.75	431.759
1430.28	422.962
1436.82	411.784
1443.35	403.434
1449.88	406.634
1456.42	394.056
1462.95	386.57
1469.48	386.946
1476.02	378.222
1482.55	383.485
1489.09	398.367
1495.62	396.304
1502.15	390.347
1508.69	396.499
1515.22	392.427
1521.75	411.092
1528.29	413.875
1534.82	422.789
1541.35	444.155
1547.89	463.657
1554.42	487.043
1560.95	521.68
1567.49	580.185
1574.02	607.56
1580.55	682.973
1587.09	724.505
1593.62	799.354
1600.15	783.72
1606.69	783.227
1613.22	748.627
1619.75	691.194
1626.29	611.566
1632.82	500.603
1639.35	410.834
1645.89	349.73
1652.42	312.092
1658.95	250.872
1665.49	222.333
1672.02	187.889
1678.55	152.657
1685.09	143.732
1691.62	133.905
1698.16	116.78
1704.69	111.572
1711.22	95.9678
1717.76	102.535
1724.29	97.3915
1730.82	84.3274
1737.36	86.1855
1743.89	83.3537
1750.42	85.2616
1756.96	81.1229
1763.49	74.6399
1770.02	77.8231
1776.56	80.6774
1783.09	77.4838
1789.62	72.455
1796.16	72.2772
1802.69	74.4868
1809.22	71.009
1815.76	79.6118
1822.29	73.2705
1828.82	69.279
1835.36	77.838
1841.89	70.8748
1848.42	79.2534
1854.96	68.0368
1861.49	71.0345
1868.02	77.2015
1874.56	68.1512
1881.09	69.9517
1887.62	68.7586
1894.16	76.1306
1900.69	65.2982
1907.23	74.1735
1913.76	61.0276
1920.29	68.9463
1926.83	70.6846
1933.36	72.9046
1939.89	77.2557
1946.43	65.441
1952.96	79.473
1959.49	71.009
1966.03	77.1426
1972.56	70.6616
1979.09	73.8795
1985.63	77.7398
1992.16	71.9182
1998.69	67.2265
2000	66.4081

File: R1 - 25 microns - sideB.txt
300	93.1483
306.533	94.7999
313.067	93.9527
319.6	92.9574
326.134	89.6417
332.667	87.5164
339.201	89.463
345.734	84.8118
352.267	87.1323
358.801	90.3333
365.334	84.7026
371.868	84.6899
378.401	81.2909
384.935	82.2689
391.468	80
398.002	83.467
404.535	84.5808
411.068	79.3287
417.602	76.808
424.135	80.302
430.669	80.6761
437.202	76.1865
443.736	73.5649
450.269	75.7875
456.802	76.2157
463.336	69.6087
469.869	80.5263
476.403	73.8589
482.936	65.0648
489.47	72.5921
496.003	69.3425
502.536	69.0564
509.07	66.0447
515.603	64.1693
522.137	73.757
528.67	75.6581
535.204	67.274
541.737	68.3333
548.271	60.9227
554.804	61.4426
561.337	60.8477
567.871	64.9407
574.404	65.6667
580.938	70.0569
587.471	71.3333
594.005	73.4089
600.538	71.8861
607.071	72.6251
613.605	72.9526
620.138	70.2584
626.672	65.3865
633.205	75.1357
639.739	66.1061
646.272	78.6453
652.806	75.922
659.339	78.8304
665.872	73.5667
672.406	76.1794
678.939	82.9586
685.473	71.5999
692.006	82.0975
698.54	79.4313
705.073	76.7532
711.606	78.3428
718.14	78.9554
724.673	76.4235
731.207	81.7139
737.74	84.9857
744.274	87.4874
750.807	78.8266
757.341	91.6666
763.874	90.7909
770.407	92.4407
776.941	90.2596
783.474	89.101
790.008	98.8413
796.541	97.4232
803.075	103.461
809.608	91.808
816.141	92.4793
822.675	97.5118
829.208	89.6146
835.742	88.3596
842.275	105.373
848.809	96.1892
855.342	105.237
861.875	100.697
868.409	96.0552
874.942	97.8673
881.476	92.0686
888.009	90.9838
894.543	85.7595
901.076	86.4046
907.61	90.6887
914.143	91.6786
920.676	92.2145
927.21	83.9411
933.743	88.668
940.277	91.8108
946.81	78.2518
953.344	87.61
959.877	89.2246
966.41	87.5708
972.944	88.366
979.477	82.2226
986.011	80.2532
992.544	95.7907
999.078	91.1266
1005.61	89.8698
1012.14	93.9303
1018.68	98.8829
1025.21	98.4878
1031.74	100.141
1038.28	105.202
1044.81	117.896
1051.35	111.52
1057.88	108.975
1064.41	108.675
1070.95	112.348
1077.48	113.632
1084.01	122.271
1090.55	132.175
1097.08	126.504
1103.61	125.819
1110.15	130.129
1116.68	139.573
1123.21	133.644
1129.75	154.115
1136.28	156.484
1142.81	162.353
1149.35	175.676
1155.88	179.196
1162.41	182.048
1168.95	183.953
1175.48	177.829
1182.01	189.025
1188.55	194.885
1195.08	191.526
1201.61	195.804
1208.15	203.54
1214.68	221.368
1221.21	202.42
1227.75	221.4
1234.28	222.55
1240.81	234.101
1247.35	255.566
1253.88	272.433
1260.42	267.213
1266.95	280.723
1273.48	309.016
1280.02	321.667
1286.55	349.546
1293.08	366.965
1299.62	393
1306.15	420.095
1312.68	459.956
1319.22	489.402
1325.75	510.252
1332.28	542.82
1338.82	557.473
1345.35	581.877
1351.88	547.457
1358.42	542.831
1364.95	504.779
1371.48	489.115
1378.02	453.369
1384.55	425.7
1391.08	400.26
1397.62	373.788
1404.15	356.578
1410.68	338.227
1417.22	336.587
1423.75	330.564
1430.28	310.034
1436.82	299.252
1443.35	293.07
1449.88	295.385
1456.42	289.445
1462.95	273.185
1469.48	283.748
1476.02	292.649
1482.55	283.069
1489.09	283.476
1495.62	285.637
1502.15	296.663
1508.69	304.83
1515.22	295.738
1521.75	295.395
1528.29	322.864
1534.82	324.285
1541.35	344.328
1547.89	357.693
1554.42	390.447
1560.95	420.329
1567.49	448.695
1574.02	481.838
1580.55	519.959
1587.09	547.943
1593.62	573.89
1600.15	560.995
1606.69	547.077
1613.22	511.908
1619.75	463.062
1626.29	404.911
1632.82	343.705
1639.35	280.856
1645.89	226.566
1652.42	211.862
1658.95	183.853
1665.49	159.912
1672.02	141.208
1678.55	113.04
1685.09	99.269
1691.62	100.045
1698.16	94.331
1704.69	88.0144
1711.22	87.3309
1717.76	77.2282
1724.29	74.655
1730.82	76.9466
1737.36	69.2057
1743.89	69.4044
1750.42	68.4651
1756.96	72.4886
1763.49	69.085
1770.02	72.1051
1776.56	69.379
1783.09	67.5127
1789.62	68.6063
1796.16	72.3517
1802.69	69.721
1809.22	61.7413
1815.76	63.3089
1822.29	64.4681
1828.82	64.0497
1835.36	65.3376
1841.89	63.8315
1848.42	63.5467
1854.96	61.5574
1861.49	67.6705
1868.02	67.7132
1874.56	62.8683
1881.09	64.6807
1887.62	57.0964
1894.16	61.4385
1900.69	70.53
1907.23	58.0251
1913.76	70.6598
1920.29	61.2006
1926.83	70.3834
1933.36	66.0943
1939.89	62.7443
1946.43	63.9092
1952.96	61.9516
1959.49	58.3702
1966.03	67.6435
1972.56	57.9691
1979.09	59.8709
1985.63	63.535
1992.16	64.8742
1998.69	62.2114
2000	62.3333

File: R2 - 25 microns - sideA.txt
300	107.481
306.533	115.101
313.067	125.285
319.6	111.937
326.134	106.569
332.667	109.256
339.201	109.385
345.734	107.656
352.267	108.409
358.801	106.634
365.334	103.07
371.868	88.465
378.401	96.3758
384.935	90.0644
391.468	98.5082
398.002	88.2852
404.535	95.8464
411.068	86.6854
417.602	94.1013
424.135	95.1974
430.669	97.943
437.202	96.56
443.736	104.239
450.269	99.4619
456.802	96.8863
463.336	93.5669
469.869	90.7038
476.403	86.1914
482.936	86.6389
489.47	85.4079
496.003	85.4199
502.536	91.1385
509.07	88.0907
515.603	82.1645
522.137	83.7903
528.67	83.66
535.204	82.8435
541.737	79.5845
548.271	79.0744
554.804	84.8394
561.337	85.0065
567.871	81.992
574.404	92.0641
580.938	85.8816
587.471	86.6186
594.005	86.135
600.538	88.4671
607.071	83.3721
613.605	81.7471
620.138	84.0395
626.672	86.8111
633.205	83.6101
639.739	87.7194
646.272	83.1668
652.806	103.816
659.339	91.6027
665.872	92.8833
672.406	95.1538
678.939	96.0025
685.473	94.7333
692.006	96.9409
698.54	90.2417
705.073	96.1504
711.606	98.6572
718.14	95.7255
724.673	97.7283
731.207	100.599
737.74	103.047
744.274	102.42
750.807	107.162
757.341	99.6666
763.874	106.322
770.407	97.0537
776.941	98.0583
783.474	95.9115
790.008	104.561
796.541	111.397
803.075	115.658
809.608	110.852
816.141	106.753
822.675	111.987
829.208	110.062
835.742	104.14
842.275	105.857
848.809	114.24
855.342	121.492
861.875	108.949
868.409	110.365
874.942	106.106
881.476	115.392
888.009	97.3668
894.543	106.776
901.076	108.274
907.61	107.209
914.143	101.976
920.676	106.329
927.21	100.22
933.743	103
940.277	92.6543
946.81	103.7
953.344	96.86
959.877	98.641
966.41	113.983
972.944	105.614
979.477	100.51
986.011	100.887
992.544	108.692
999.078	105.581
1005.61	112.172
1012.14	116.133
1018.68	122.709
1025.21	120.02
1031.74	117.913
1038.28	121.679
1044.81	128.581
1051.35	132.113
1057.88	135.199
1064.41	131.921
1070.95	143.466
1077.48	152.851
1084.01	142.068
1090.55	141.733
1097.08	153.388
1103.61	141.286
1110.15	151.871
1116.68	161.406
1123.21	158.714
1129.75	166.494
1136.28	162.345
1142.81	170.739
1149.35	179.683
1155.88	193.445
1162.41	189.808
1168.95	196.474
1175.48	201.22
1182.01	193.896
1188.55	204.097
1195.08	203.116
1201.61	211.757
1208.15	236.79
1214.68	226.176
1221.21	237.79
1227.75	239.766
1234.28	238.645
1240.81	262.978
1247.35	280.006
1253.88	286.494
1260.42	304.181
1266.95	312.464
1273.48	330.847
1280.02	341.353
1286.55	372.266
1293.08	389.472
1299.62	419.621
1306.15	442.003
1312.68	489.791
1319.22	522.61
1325.75	534.637
1332.28	587.638
1338.82	607.458
1345.35	605.002
1351.88	593.872
1358.42	568.777
1364.95	540.389
1371.48	511.048
1378.02	485.067
1384.55	446.469
1391.08	422.245
1397.62	411.275
1404.15	389.463
1410.68	369.934
1417.22	353.707
1423.75	349.052
1430.28	331.466
1436.82	332.956
1443.35	306.783
1449.88	327.221
1456.42	314.701
1462.95	311.339
1469.48	318.03
1476.02	320.426
1482.55	317.325
1489.09	314.863
1495.62	312.903
1502.15	330.534
1508.69	319.423
1515.22	334.184
1521.75	336.717
1528.29	348.798
1534.82	359.607
1541.35	373.38
1547.89	403.424
1554.42	441.625
1560.95	477.673
1567.49	498.129
1574.02	548.01
1580.55	565.032
1587.09	582.011
1593.62	596.688
1600.15	593.788
1606.69	546.455
1613.22	512.82
1619.75	441.684
1626.29	384.736
1632.82	332.017
1639.35	291.526
1645.89	244.664
1652.42	204.43
1658.95	193.17
1665.49	171.836
1672.02	146.993
1678.55	135.755
1685.09	125.213
1691.62	104.451
1698.16	107.778
1704.69	104.239
1711.22	97
1717.76	92.7269
1724.29	88.3967
1730.82	94.28
1737.36	88.1947
1743.89	90.6364
1750.42	92.1298
1756.96	81.7286
1763.49	82.6824
1770.02	91.776
1776.56	88.1183
1783.09	74.6894
1789.62	79.2716
1796.16	80.1316
1802.69	71.869
1809.22	77.3603
1815.76	81.8842
1822.29	77.0041
1828.82	76.4515
1835.36	78.6652
1841.89	74.3333
1848.42	78.0529
1854.96	70.9638
1861.49	74.3909
1868.02	80.1006
1874.56	84.5132
1881.09	81.8006
1887.62	81.0442
1894.16	79.0076
1900.69	79.0631
1907.23	74.9246
1913.76	65.9419
1920.29	72.3982
1926.83	72.1551
1933.36	76.3399
1939.89	67.6867
1946.43	78.5994
1952.96	74.4466
1959.49	80.1572
1966.03	80.2407
1972.56	73.6154
1979.09	69.5399
1985.63	77.6098
1992.16	71.9623
1998.69	74.4229
2000	67.701