Folder: Graphs/Example Data/Raman/CNT - TIM/Raytheon/Al foil/2010/04-20-10 (part 2)

File: R2 - 25 microns - sideB.txt
300	89.5926
306.533	86.1015
313.067	96.7382
319.6	88.9889
326.134	90.9258
332.667	93.6667
339.201	89.9753
345.734	89.9234
352.267	89.7925
358.801	102.63
365.334	83.4101
371.868	92.9961
378.401	87.4823
384.935	91.019
391.468	90.3217
398.002	80.5116
404.535	83.3821
411.068	87.0376
417.602	83.4958
424.135	82.37
430.669	96.0854
437.202	85.4536
443.736	87.8523
450.269	91.7738
456.802	91.3607
463.336	86.4316
469.869	87.4496
476.403	84.1914
482.936	78.2778
489.47	76.6667
496.003	76.3911
502.536	74.8194
509.07	74.1264
515.603	76
522.137	75.676
528.67	79.9986
535.204	73.9418
541.737	69.5394
548.271	71.9256
554.804	81.2388
561.337	85.3851
567.871	76.1635
574.404	81.4598
580.938	83.2929
587.471	79.21875
594.005	82.8612
600.538	78.1812
607.071	83.4778
613.605	89.717
620.138	84.2505
626.672	81.6341
633.205	87.1241
639.739	80.3958
646.272	92.9585
652.806	92.461
659.339	86.8072
665.872	84.3501
672.406	91.2822
678.939	90.7024
685.473	90.6001
692.006	84.1567
698.54	92.7267
705.073	85.9007
711.606	96.1329
718.14	89.508
724.673	87.6561
731.207	94.8506
737.74	94.8916
744.274	93.51
750.807	96.2621
757.341	107.405
763.874	104.525
770.407	93.8488
776.941	108.112
783.474	99.9616
790.008	105.951
796.541	101.423
803.075	106.06
809.608	117.63
816.141	112.554
822.675	108.242
829.208	112.234
835.742	113.754
842.275	118.627
848.809	114.652
855.342	126.782
861.875	120.734
868.409	114.47
874.942	108.215
881.476	113.422
888.009	102.585
894.543	112.091
901.076	114.083
907.61	108.772
914.143	96.9079
920.676	109.893
927.21	104.67
933.743	102.997
940.277	102.749
946.81	105.821
953.344	106.967
959.877	98.6781
966.41	106.383
972.944	113.373
979.477	111.464
986.011	108.483
992.544	112.124
999.078	113.562
1005.61	120.335
1012.14	125.086
1018.68	124.867
1025.21	140.391
1031.74	136.667
1038.28	144.829
1044.81	136.08
1051.35	142.814
1057.88	152.078
1064.41	157.303
1070.95	165.043
1077.48	170.521
1084.01	176.627
1090.55	182.308
1097.08	193.238
1103.61	197.333
1110.15	188.603
1116.68	204.861
1123.21	227.378
1129.75	221.908
1136.28	226.979
1142.81	244.069
1149.35	266.911
1155.88	264.056
1162.41	284.586
1168.95	291.721
1175.48	301.585
1182.01	306.638
1188.55	310.414
1195.08	308.948
1201.61	338.991
1208.15	345.665
1214.68	352.315
1221.21	361.857
1227.75	382.657
1234.28	379.452
1240.81	395.025
1247.35	415.261
1253.88	452.86
1260.42	455.664
1266.95	490.017
1273.48	526.214
1280.02	566.562
1286.55	610.162
1293.08	644.418
1299.62	701.267
1306.15	750.374
1312.68	833.625
1319.22	927.094
1325.75	974.518
1332.28	1089.04
1338.82	1151.88
1345.35	1199.04
1351.88	1198.5
1358.42	1181.06
1364.95	1134.9
1371.48	1061.73
1378.02	1002.61
1384.55	899.165
1391.08	831.358
1397.62	777.332
1404.15	719.131
1410.68	679.755
1417.22	639.379
1423.75	587.395
1430.28	583.805
1436.82	558.349
1443.35	551.106
1449.88	545.089
1456.42	525.84
1462.95	530.135
1469.48	515.062
1476.02	520.905
1482.55	517.96
1489.09	521.768
1495.62	512.729
1502.15	524.949
1508.69	507.761
1515.22	521.548
1521.75	535.799
1528.29	558.134
1534.82	559.268
1541.35	576.672
1547.89	623.539
1554.42	665.402
1560.95	726.863
1567.49	775.479
1574.02	861.719
1580.55	940.913
1587.09	1052.08
1593.62	1139.62
1600.15	1191.71
1606.69	1186.27
1613.22	1161.52
1619.75	1078.03
1626.29	942.86
1632.82	776.838
1639.35	659.925
1645.89	552.438
1652.42	459.672
1658.95	380.472
1665.49	315.836
1672.02	245.33
1678.55	215.764
1685.09	189.843
1691.62	161.663
1698.16	150.226
1704.69	139.447
1711.22	125.731
1717.76	112.691
1724.29	107.044
1730.82	115.834
1737.36	97.6777
1743.89	97.2358
1750.42	102.401
1756.96	91.7
1763.49	91.2706
1770.02	86.2411
1776.56	92.6357
1783.09	84.8302
1789.62	85.2443
1796.16	88.5491
1802.69	84.6592
1809.22	85.139
1815.76	95.7988
1822.29	91.3987
1828.82	87.3452
1835.36	78.3305
1841.89	81.4429
1848.42	85.214
1854.96	83.6673
1861.49	80.4523
1868.02	84.1083
1874.56	83.3585
1881.09	81.9657
1887.62	89.236
1894.16	85.4411
1900.69	87.5332
1907.23	80.6667
1913.76	91.0982
1920.29	82.4407
1926.83	81.1372
1933.36	85.5745
1939.89	79.218
1946.43	85.1246
1952.96	78.9934
1959.49	82.0278
1966.03	77.8806
1972.56	82.2308
1979.09	81.3764
1985.63	83.9122
1992.16	84.8365
1998.69	83.2093
2000	79.5772