Folder: Graphs/Example Data/Raman/CNT - TIM/Raytheon/Al foil/2010/05-13-10

Note: README.md
# Graphs
A macOS app that manages the organization of data files and graphs them.

Licensed under the MIT licensing terms: https://opensource.org/licenses/MIT

Hildreth wrote the precursor to Graphs, then called GraphBase, during his Ph.D. to help manage the data he was collecting as part of his research on Metal-assisted Chemical Etching of Silicon.  He was becoming overwhelmed by the hundreds of data files he was collecting every week and was inspired by the Papers and iTunes applications on OS X (now macOS) to create an application that managed data.  GraphBase provided an easy template to create a parser, a simple UI to organize data into hiarchical folders, and leveraged the DataGraph framework (http://www.visualdatatools.com/DataGraph/Framework/) for graphing.  DataGraph (http://www.visualdatatools.com/DataGraph/) is an amazing 2D graphing application and you will need to purchase a DataGraph license from Visual Data Tools in order to use Graphs.

Graphs is a rewrite of GraphBase in Swift written by Connor and then re-written again by Hildreth that has been open sourced for use by all.  Please not that you will need a DataGraph license to create the graph templates used by the DataGraph framework underlying Graphs.  Hildreth plans to continue evolving this application.  The next plan improvements are: multithreading for import and parsing using the new Results type in Swift; and begin switching over to SwiftUI for the UI.  Long term, we hope to add support for data analysis and extraction.

# Overview
Graphs is a data management tool that allows you to store your raw data files in a text formate (CSV, tab delimited, etc.) and then have those files parsed and graphed when selected.  Graphs uses the DataGraph fromework 

To use Graphs, first you create an example graph, what we call a Graph Template, in DataGraph.  Format the graph the way you want it to look and make sure that the Data Columns are in the same order as the columns in your data.  Next, you  add your "Graph Template" to Graphs using either the Graph Template Inspector on the right side of Graphs using using the "+" sign on the bottom left of the application.  You can also drag-and-drop the file onto a folder in the Source List.  Once you add a Graph Template, you can assign it to be the default Graph Template for a folder and any sub-folders using the Folder Inspector.

The second step is to make a Paser using the Parser Inspector.  It might be helpful to have an example file already in Graphs (see Step 3) because you can use the Text Inspector to see what lines your Experimental Details, Header, and Data start at.  Add a Parse Template using the + sign in the Parse Inspector's table and give the Parse Template a name.  If your data has experimental details at the top, then select the checkbox and set the starting and ending lines for this information.  If your data has a Header, select the Header checkbox, give it starting and ending line numbers, and then select the type of s

File: R1-sideA.txt
300	358.951
306.115	389.618
312.23	382.695
318.345	380.445
324.46	370.554
330.576	382.566
336.691	378.674
342.806	365.723
348.921	371.033
355.036	358.916
361.151	358.843
367.266	351.976
373.381	363.801
379.496	358.665
385.612	352.899
391.727	350.324
397.842	345.188
403.957	336.603
410.072	334.77
416.187	352.934
422.302	330.703
428.417	328.736
434.532	323.991
440.647	334.079
446.763	324.235
452.878	327.303
458.993	330.614
465.108	311.584
471.223	306.678
477.338	304.255
483.453	298.92
489.568	293.859
495.683	300.152
501.799	300.797
507.914	279.124
514.029	284.925
520.144	289.353
526.259	284.919
532.374	279.721
538.489	292.437
544.604	280.919
550.719	287.933
556.835	291.514
562.95	290.334
569.065	302.357
575.18	293.885
581.295	297.4
587.41	315.232
593.525	293.631
599.64	285.852
605.755	291.447
611.87	305.596
617.986	298.232
624.101	300.76
630.216	304.203
636.331	314.271
642.446	301.464
648.561	305.01
654.676	311.908
660.791	330.703
666.906	316.905
673.022	327.633
679.137	321.957
685.252	313.045
691.367	312.052
697.482	323.744
703.597	333.245
709.712	337.687
715.827	325.978
721.942	347.937
728.058	345.65
734.173	351.969
740.288	365.892
746.403	361.857
752.518	368.381
758.633	374.289
764.748	381.251
770.863	376.19
776.978	386.721
783.094	373.296
789.209	388.45
795.324	369.398
801.439	402.403
807.554	392.899
813.669	406.601
819.784	420.383
825.899	402.92
832.014	414.852
838.13	420.268
844.245	429.579
850.36	410.259
856.475	414.315
862.59	414.692
868.705	399.694
874.82	385.731
880.935	397.346
887.05	377.279
893.165	369.829
899.281	360.319
905.396	355.076
911.511	351.364
917.626	331.473
923.741	342.965
929.856	336.267
935.971	342.885
942.086	337.728
948.201	345.97
954.317	343.761
960.432	336.403
966.547	355.4
972.662	346.24
978.777	354.077
984.892	348.143
991.007	360.389
997.122	367.591
1003.24	384.203
1009.35	398.532
1015.47	403.133
1021.58	403.353
1027.7	423.983
1033.81	419.749
1039.93	447.046
1046.04	451.792
1052.16	476.529
1058.27	468.135
1064.39	477.336
1070.5	476.616
1076.62	486.852
1082.73	484.72
1088.85	497.733
1094.96	506.146
1101.08	506.728
1107.19	517.281
1113.31	547.933
1119.42	537.594
1125.54	546.569
1131.65	574
1137.77	582.772
1143.88	627.27
1150	641.38
1156.12	661.119
1162.23	677.007
1168.35	687.439
1174.46	684.25
1180.58	701.789
1186.69	704.305
1192.81	730.776
1198.92	740.247
1205.04	755.613
1211.15	777.993
1217.27	808.109
1223.38	827.514
1229.5	842.463
1235.61	881.19
1241.73	911.788
1247.84	976.04
1253.96	997.149
1260.07	1053.51
1266.19	1078.33
1272.3	1111.77
1278.42	1172.86
1284.53	1260.26
1290.65	1322.58
1296.76	1384.82
1302.88	1437.55
1308.99	1544.8
1315.11	1649.57
1321.22	1710.36
1327.34	1827.11
1333.45	1817.3
1339.57	1833.15
1345.68	1882.41
1351.8	1843.31
1357.91	1789.11
1364.03	1745.68
1370.14	1634.14
1376.26	1597.24
1382.37	1543.25
1388.49	1446.56
1394.6	1393.86
1400.72	1332.06
1406.83	1323.2
1412.95	1250.99
1419.06	1174.59
1425.18	1170.63
1431.29	1144.74
1437.41	1123.58
1443.53	1121.39
1449.64	1095.91
1455.76	1085.9
1461.87	1067.93
1467.99	1083.88
1474.1	1052.71
1480.22	1074.19
1486.33	1057.38
1492.45	1067.64
1498.56	1096.77
1504.68	1079.72
1510.79	1107.69
1516.91	1091.8
1523.02	1138.97
1529.14	1171.08
1535.25	1195.22
1541.37	1203.01
1547.48	1269.18
1553.6	1356.24
1559.71	1444.25
1565.83	1524.04
1571.94	1632.88
1578.06	1747.08
1584.17	1851.19
1590.29	1899.65
1596.4	1891.01
1602.52	1850.31
1608.63	1708.76
1614.75	1548.88
1620.86	1376.25
1626.98	1182.23
1633.09	1034.02
1639.21	883.51
1645.32	761.858
1651.44	676.424
1657.55	583.564
1663.67	515.242
1669.78	464.262
1675.9	413.941
1682.01	376.318
1688.13	342.715
1694.24	314.946
1700.36	297.069
1706.47	286.807
1712.59	269.019
1718.71	251.392
1724.82	251.943
1730.94	241.871
1737.05	235.158
1743.17	235.303
1749.28	224.863
1755.4	220.88
1761.51	212.65
1767.63	212.653
1773.74	220.184
1779.86	210.597
1785.97	196.098
1792.09	206.647
1798.2	215.519
1804.32	202.629
1810.43	199.131
1816.55	206.544
1822.66	209.178
1828.78	209.059
1834.89	194.87
1841.01	204.492
1847.12	194.919
1853.24	210.797
1859.35	191.854
1865.47	197.566
1871.58	200.932
1877.7	208.404
1883.81	191.548
1889.93	201.574
1896.04	192
1902.16	193.43
1908.27	198.48
1914.39	191.159
1920.5	202.512
1926.62	187.921
1932.73	194.688
1938.85	197.564
1944.96	196.106
1951.08	181.516
1957.19	192.859
1963.31	183.137
1969.42	202.996
1975.54	200.203
1981.65	195.199
1987.77	200.46
1993.88	195.485
2000	197.393

File: R1-sideB.txt
300	319.815
306.115	352.349
312.23	352.885
318.345	347.729
324.46	326.888
330.576	314.868
336.691	326.138
342.806	334.71
348.921	320.861
355.036	306.361
361.151	323.18
367.266	303.161
373.381	300.673
379.496	309.066
385.612	308.185
391.727	309.12
397.842	308.023
403.957	291.042
410.072	282.622
416.187	283.984
422.302	299.679
428.417	291.667
434.532	294.408
440.647	283.026
446.763	272.292
452.878	289.318
458.993	285.237
465.108	274.851
471.223	268.952
477.338	273.393
483.453	267.936
489.568	261.025
495.683	258.568
501.799	255.797
507.914	252.292
514.029	253.43
520.144	263.459
526.259	235.323
532.374	233.926
538.489	242.76
544.604	258.316
550.719	249.114
556.835	240.75
562.95	250.761
569.065	262.099
575.18	259
581.295	248.082
587.41	265.612
593.525	248.99
599.64	263.283
605.755	268.042
611.87	248.989
617.986	260.697
624.101	264.934
630.216	256.319
636.331	258.692
642.446	262.103
648.561	273.896
654.676	272.826
660.791	262.357
666.906	274.203
673.022	286.509
679.137	281.71
685.252	271.872
691.367	277.574
697.482	275.624
703.597	285.732
709.712	275.649
715.827	272.72
721.942	302.861
728.058	300.245
734.173	298.337
740.288	306.88
746.403	313.284
752.518	320.778
758.633	313.565
764.748	313.988
770.863	327.528
776.978	332.456
783.094	334.543
789.209	327.913
795.324	329.783
801.439	341.047
807.554	363
813.669	347.01
819.784	366.089
825.899	356.013
832.014	354.306
838.13	367.021
844.245	345.892
850.36	367.59
856.475	345.608
862.59	348.455
868.705	345.546
874.82	313.263
880.935	324.159
887.05	315.381
893.165	305.656
899.281	307.91
905.396	310.899
911.511	303.528
917.626	285.665
923.741	288.82
929.856	285.134
935.971	281.242
942.086	287.656
948.201	289.019
954.317	279.744
960.432	285.363
966.547	273.4
972.662	283.336
978.777	282.13
984.892	284.302
991.007	289.173
997.122	301.659
1003.24	311.037
1009.35	310.488
1015.47	329.405
1021.58	330.967
1027.7	337.434
1033.81	352.314
1039.93	360.227
1046.04	345.597
1052.16	368.922
1058.27	351.715
1064.39	376.7
1070.5	369.252
1076.62	375.836
1082.73	380.95
1088.85	398.164
1094.96	383.976
1101.08	395.526
1107.19	400.543
1113.31	394.211
1119.42	411.881
1125.54	422.752
1131.65	416.967
1137.77	435.254
1143.88	458.967
1150	458.76
1156.12	456.873
1162.23	473.985
1168.35	474.273
1174.46	481.05
1180.58	484.884
1186.69	504.087
1192.81	510.219
1198.92	527.293
1205.04	545.684
1211.15	538.546
1217.27	569.847
1223.38	592.839
1229.5	619.223
1235.61	646.269
1241.73	664.827
1247.84	682.422
1253.96	716.461
1260.07	758.54
1266.19	773.518
1272.3	825.324
1278.42	876.243
1284.53	919.119
1290.65	988.899
1296.76	1044.7
1302.88	1134.12
1308.99	1224.41
1315.11	1326.33
1321.22	1406.35
1327.34	1497.25
1333.45	1583.09
1339.57	1617.04
1345.68	1611.22
1351.8	1559.48
1357.91	1493.69
1364.03	1402.32
1370.14	1291.27
1376.26	1231.74
1382.37	1129.91
1388.49	1064.31
1394.6	1017.48
1400.72	966.318
1406.83	927.683
1412.95	881.057
1419.06	860.79
1425.18	842.233
1431.29	827
1437.41	799.188
1443.53	782.045
1449.64	784.006
1455.76	771.318
1461.87	765.094
1467.99	761.348
1474.1	772.485
1480.22	753.772
1486.33	737.749
1492.45	776.896
1498.56	784.38
1504.68	762.161
1510.79	778.399
1516.91	816.014
1523.02	834.83
1529.14	862.295
1535.25	919.856
1541.37	944.638
1547.48	1014.08
1553.6	1127.8
1559.71	1173.14
1565.83	1241.21
1571.94	1337.14
1578.06	1414.75
1584.17	1440.84
1590.29	1480.07
1596.4	1418.19
1602.52	1363.09
1608.63	1276.12
1614.75	1143.48
1620.86	1005.27
1626.98	859.608
1633.09	733.416
1639.21	632.68
1645.32	555.454
1651.44	497.084
1657.55	430.574
1663.67	378.027
1669.78	335.478
1675.9	311.574
1682.01	285.134
1688.13	262.93
1694.24	244.673
1700.36	235.638
1706.47	234.737
1712.59	216.888
1718.71	214.869
1724.82	215.839
1730.94	202.44
1737.05	204.006
1743.17	194.342
1749.28	189.703
1755.4	189.96
1761.51	188.125
1767.63	180.334
1773.74	187.016
1779.86	190.762
1785.97	174.55
1792.09	176.137
1798.2	181.954
1804.32	180.691
1810.43	172.257
1816.55	172.277
1822.66	168.02
1828.78	174.608
1834.89	171.504
1841.01	172.895
1847.12	175.737
1853.24	173.01
1859.35	171.17
1865.47	169.818
1871.58	158.756
1877.7	171.455
1883.81	166.869
1889.93	164.809
1896.04	166.358
1902.16	170.178
1908.27	160.324
1914.39	167.516
1920.5	159.302
1926.62	164.711
1932.73	165.277
1938.85	147.515
1944.96	158.181
1951.08	165.428
1957.19	152.978
1963.31	161.971
1969.42	162.358
1975.54	158.712
1981.65	171.137
1987.77	166.578
1993.88	162.943
2000	165.33

File: R2-sideA.txt
300	347.428
306.115	350.277
312.23	346.385
318.345	353.223
324.46	353.645
330.576	352.113
336.691	326.007
342.806	340.394
348.921	325.469
355.036	344.352
361.151	317.027
367.266	335.281
373.381	322.081
379.496	327.327
385.612	325.132
391.727	320.45
397.842	328.573
403.957	324.986
410.072	303.333
416.187	311.161
422.302	309.148
428.417	307.932
434.532	312.942
440.647	288.735
446.763	283.691
452.878	292.853
458.993	284.821
465.108	302.257
471.223	289.665
477.338	277.94
483.453	266.07
489.568	278.908
495.683	264.766
501.799	252.29
507.914	265.271
514.029	262.247
520.144	251.04
526.259	257.734
532.374	244.634
538.489	258.563
544.604	261.347
550.719	262.455
556.835	256.119
562.95	265.207
569.065	261.486
575.18	263.588
581.295	274.536
587.41	281.444
593.525	277.081
599.64	275.657
605.755	270.145
611.87	262.763
617.986	267
624.101	272.196
630.216	265.602
636.331	276.246
642.446	273.558
648.561	281.889
654.676	286.551
660.791	300.661
666.906	284.035
673.022	283.73
679.137	300.15
685.252	279.124
691.367	286.84
697.482	299.787
703.597	295.18
709.712	298.135
715.827	305.957
721.942	312.43
728.058	311.124
734.173	324.049
740.288	326.185
746.403	315.019
752.518	335.666
758.633	340.796
764.748	334.497
770.863	339.257
776.978	364.313
783.094	346.726
789.209	354.131
795.324	364.464
801.439	364.615
807.554	348.687
813.669	370.447
819.784	359.411
825.899	360.385
832.014	369.292
838.13	385.529
844.245	398.12
850.36	367.544
856.475	389.211
862.59	366.176
868.705	360.19
874.82	349.985
880.935	329.178
887.05	339.646
893.165	331.773
899.281	326.078
905.396	316.729
911.511	329.467
917.626	317.502
923.741	307.787
929.856	309.935
935.971	303.818
942.086	304.054
948.201	305.044
954.317	304.647
960.432	308.634
966.547	302.867
972.662	312.977
978.777	295.138
984.892	319.866
991.007	325.045
997.122	329.357
1003.24	336.814
1009.35	342.117
1015.47	360.735
1021.58	368.325
1027.7	371.555
1033.81	373.905
1039.93	413.568
1046.04	403.937
1052.16	393.902
1058.27	400.668
1064.39	407.946
1070.5	422.902
1076.62	427.664
1082.73	434.075
1088.85	436.774
1094.96	442.831
1101.08	452.056
1107.19	470.823
1113.31	465.159
1119.42	470.491
1125.54	485.106
1131.65	485.992
1137.77	505.901
1143.88	492.32
1150	521.606
1156.12	543.066
1162.23	536.03
1168.35	550.955
1174.46	545.216
1180.58	583.555
1186.69	576.052
1192.81	590.539
1198.92	612.165
1205.04	631.607
1211.15	632.933
1217.27	640.87
1223.38	658.952
1229.5	684.893
1235.61	726.791
1241.73	750.416
1247.84	782.424
1253.96	815.328
1260.07	853.907
1266.19	899.731
1272.3	936.611
1278.42	991.894
1284.53	1035.18
1290.65	1110.05
1296.76	1215.22
1302.88	1302.09
1308.99	1379.89
1315.11	1528.8
1321.22	1606.13
1327.34	1751.92
1333.45	1858.5
1339.57	1908.72
1345.68	1904.14
1351.8	1811.57
1357.91	1744.46
1364.03	1658.03
1370.14	1559.33
1376.26	1454.51
1382.37	1363.29
1388.49	1288.69
1394.6	1229.07
1400.72	1135.95
1406.83	1116.08
1412.95	1044.25
1419.06	1018.76
1425.18	972.785
1431.29	970.055
1437.41	966.518
1443.53	935.969
1449.64	935.068
1455.76	922.783
1461.87	919.632
1467.99	921.316
1474.1	948.896
1480.22	930.714
1486.33	925.194
1492.45	955.139
1498.56	949.832
1504.68	937.571
1510.79	978.56
1516.91	971.236
1523.02	1016.05
1529.14	1089.88
1535.25	1134.43
1541.37	1209.11
1547.48	1291.89
1553.6	1456.92
1559.71	1581.88
1565.83	1687
1571.94	1828.4
1578.06	1961.78
1584.17	1989.52
1590.29	1977.54
1596.4	1919.88
1602.52	1837.75
1608.63	1725.82
1614.75	1539.63
1620.86	1360.28
1626.98	1189.39
1633.09	1007.36
1639.21	841.783
1645.32	745.626
1651.44	621.971
1657.55	540.334
1663.67	462.472
1669.78	399.824
1675.9	358.072
1682.01	336.627
1688.13	308.707
1694.24	288.773
1700.36	278.332
1706.47	255.892
1712.59	248.719
1718.71	248.161
1724.82	236.22
1730.94	232.516
1737.05	226.767
1743.17	220.516
1749.28	221.168
1755.4	207.692
1761.51	210.767
1767.63	216.268
1773.74	207.116
1779.86	202.59
1785.97	196.052
1792.09	210.098
1798.2	200.823
1804.32	193.728
1810.43	198.392
1816.55	202.307
1822.66	191.908
1828.78	190.722
1834.89	203.759
1841.01	196.412
1847.12	200.495
1853.24	188.997
1859.35	196.973
1865.47	196.157
1871.58	185.307
1877.7	195.805
1883.81	191.568
1889.93	190.769
1896.04	190.568
1902.16	193.196
1908.27	187.093
1914.39	194.916
1920.5	190.742
1926.62	190.584
1932.73	189.301
1938.85	174.798
1944.96	199.04
1951.08	194.68
1957.19	189.454
1963.31	180.632
1969.42	175.72
1975.54	187.994
1981.65	184.25
1987.77	181.821
1993.88	188.974
2000	182.492

File: R2-sideb.txt
300	119.982
306.115	138.148
312.23	119.94
318.345	117.191
324.46	115.45
330.576	116.862
336.691	134.289
342.806	111.367
348.921	122.105
355.036	117.901
361.151	123.391
367.266	114.295
373.381	118.895
379.496	114.8
385.612	117.387
391.727	112.509
397.842	106.158
403.957	113.128
410.072	109.23
416.187	111.197
422.302	104.187
428.417	106.266
434.532	107.727
440.647	105.388
446.763	101.687
452.878	107.227
458.993	107.271
465.108	107.803
471.223	99.7894
477.338	107.185
483.453	92.0938
489.568	90.5618
495.683	98.7863
501.799	90.7972
507.914	93.2927
514.029	89.9576
520.144	91.588
526.259	90.0925
532.374	94.7132
538.489	95.232
544.604	92.3614
550.719	97.1882
556.835	89.7716
562.95	98.1576
569.065	94.867
575.18	98.983
581.295	103.339
587.41	104.974
593.525	94.5627
599.64	95.3521
605.755	101.085
611.87	99.5327
617.986	104.252
624.101	98.4986
630.216	103.333
636.331	97.5897
642.446	96.0748
648.561	104.82
654.676	105.451
660.791	110.067
666.906	113.246
673.022	113.155
679.137	119.005
685.252	114.005
691.367	110.613
697.482	117.232
703.597	117.203
709.712	119.6
715.827	115.909
721.942	114.192
728.058	120.405
734.173	126.774
740.288	127.747
746.403	126.72
752.518	137.397
758.633	132.709
764.748	131.672
770.863	139.84
776.978	130.983
783.094	139.743
789.209	142.29
795.324	138.491
801.439	148.012
807.554	130.374
813.669	146.317
819.784	141.5
825.899	149.92
832.014	147.354
838.13	147.428
844.245	154.075
850.36	154.99
856.475	143.477
862.59	152.359
868.705	148.259
874.82	147.967
880.935	134.233
887.05	130.449
893.165	137.844
899.281	125.983
905.396	123.753
911.511	125.534
917.626	118.774
923.741	117.618
929.856	111.332
935.971	112.345
942.086	111.025
948.201	110.064
954.317	113.471
960.432	107.795
966.547	109.733
972.662	110.597
978.777	114.803
984.892	123.205
991.007	121.043
997.122	110.976
1003.24	126.871
1009.35	125.244
1015.47	128.133
1021.58	136.716
1027.7	139.412
1033.81	132.033
1039.93	139.33
1046.04	152.866
1052.16	153.098
1058.27	159.28
1064.39	159.872
1070.5	152.082
1076.62	159.439
1082.73	158.206
1088.85	169.627
1094.96	163.763
1101.08	180.355
1107.19	180.974
1113.31	176.371
1119.42	184.563
1125.54	188.572
1131.65	192.958
1137.77	187.411
1143.88	212.438
1150	216.998
1156.12	217.805
1162.23	229.715
1168.35	239.179
1174.46	236.725
1180.58	233.992
1186.69	227.394
1192.81	238.965
1198.92	261.884
1205.04	260.112
1211.15	255.941
1217.27	269.442
1223.38	271.028
1229.5	284.823
1235.61	295.891
1241.73	298.455
1247.84	312.638
1253.96	322.887
1260.07	337.46
1266.19	372.154
1272.3	378.687
1278.42	391.739
1284.53	409.085
1290.65	456.873
1296.76	464.534
1302.88	500.819
1308.99	528.412
1315.11	560.847
1321.22	602.314
1327.34	604.973
1333.45	656.492
1339.57	662.695
1345.68	664.655
1351.8	673
1357.91	642.795
1364.03	648.563
1370.14	629.239
1376.26	577.003
1382.37	531.192
1388.49	527.205
1394.6	492.972
1400.72	466.195
1406.83	454.771
1412.95	434.248
1419.06	424.415
1425.18	428.268
1431.29	400.389
1437.41	397.185
1443.53	387.002
1449.64	376.078
1455.76	375.965
1461.87	386.596
1467.99	377.669
1474.1	379.868
1480.22	382.101
1486.33	370.231
1492.45	367.826
1498.56	383.368
1504.68	367.414
1510.79	376.617
1516.91	384.613
1523.02	375.25
1529.14	387.786
1535.25	392.996
1541.37	416.912
1547.48	438.158
1553.6	468.134
1559.71	489.401
1565.83	525.999
1571.94	552.065
1578.06	610.552
1584.17	659.938
1590.29	669.817
1596.4	691.028
1602.52	696.209
1608.63	656.744
1614.75	611.482
1620.86	552.468
1626.98	480.117
1633.09	400.56
1639.21	352.84
1645.32	294.11
1651.44	265.116
1657.55	221.445
1663.67	194.281
1669.78	165.795
1675.9	145.733
1682.01	132.936
1688.13	116.499
1694.24	104.177
1700.36	99.7585
1706.47	95.2182
1712.59	85.7982
1718.71	86.1776
1724.82	82.2474
1730.94	80.7409
1737.05	82.0902
1743.17	73.9753
1749.28	80.867
1755.4	71.3822
1761.51	71.758
1767.63	71.0488
1773.74	70.3395
1779.86	67.4284
1785.97	67.9618
1792.09	67.3305
1798.2	72.6121
1804.32	66.6991
1810.43	64.1579
1816.55	63.753
1822.66	68.6186
1828.78	62.4027
1834.89	62.8747
1841.01	69.6413
1847.12	64.6161
1853.24	67.2714
1859.35	61.3967
1865.47	73.7567
1871.58	61.1207
1877.7	61.3673
1883.81	64.5561
1889.93	62.0042
1896.04	63.2964
1902.16	58.8445
1908.27	66.8147
1914.39	60.5317
1920.5	64.8374
1926.62	56.7835
1932.73	61.3333
1938.85	58.2589
1944.96	63.8849
1951.08	61.4022
1957.19	64.8158
1963.31	62.2388
1969.42	65.7284
1975.54	65.2824
1981.65	59.7004
1987.77	73.5191
1993.88	70.4231
2000	70.0031

File: R3-sideA.txt
300	167.773
306.115	170.623
312.23	165.521
318.345	164.477
324.46	167.099
330.576	158.302
336.691	176.727
342.806	175.307
348.921	172.752
355.036	159.907
361.151	157.571
367.266	155.263
373.381	154.035
379.496	160.656
385.612	150.736
391.727	152.124
397.842	149
403.957	145.846
410.072	149.622
416.187	159.823
422.302	159.146
428.417	152.821
434.532	137.191
440.647	131.655
446.763	144.871
452.878	146.938
458.993	141.939
465.108	127.124
471.223	138.121
477.338	138.755
483.453	142.473
489.568	131.922
495.683	135.474
501.799	127.565
507.914	122.065
514.029	120.29
520.144	122.107
526.259	124.599
532.374	117.465
538.489	127.3
544.604	118.663
550.719	120.055
556.835	127.635
562.95	125.541
569.065	116.003
575.18	117.036
581.295	119.912
587.41	118.184
593.525	128.69
599.64	138.283
605.755	135.074
611.87	126.333
617.986	123.455
624.101	132.78
630.216	139.18
636.331	139.751
642.446	131.495
648.561	135.428
654.676	130.593
660.791	134.654
666.906	140.677
673.022	146.197
679.137	141.754
685.252	134.295
691.367	145.5
697.482	142.979
703.597	153.765
709.712	141.732
715.827	145.129
721.942	152.378
728.058	141.298
734.173	156.093
740.288	158.546
746.403	161.023
752.518	156.079
758.633	159.697
764.748	163.31
770.863	161.506
776.978	168.385
783.094	167.001
789.209	177.42
795.324	174.237
801.439	176.881
807.554	171.354
813.669	180.704
819.784	173.07
825.899	185.333
832.014	183.852
838.13	187.333
844.245	193.138
850.36	182.659
856.475	190
862.59	189.721
868.705	175.021
874.82	172.099
880.935	163.608
887.05	158.292
893.165	156.142
899.281	153.74
905.396	160.037
911.511	144.456
917.626	158.01
923.741	141.206
929.856	145.385
935.971	150.661
942.086	146.523
948.201	154.458
954.317	149.518
960.432	147.311
966.547	153.933
972.662	147.422
978.777	151.117
984.892	157.326
991.007	168.562
997.122	159.06
1003.24	161.203
1009.35	154.601
1015.47	160.266
1021.58	167.37
1027.7	183.314
1033.81	183.019
1039.93	200.309
1046.04	192.531
1052.16	188.177
1058.27	191.606
1064.39	204.548
1070.5	198.01
1076.62	207.897
1082.73	207.781
1088.85	214.376
1094.96	212.215
1101.08	230.371
1107.19	225.758
1113.31	229.801
1119.42	245.721
1125.54	236.041
1131.65	234.482
1137.77	256.582
1143.88	258.849
1150	279.198
1156.12	278.112
1162.23	282.144
1168.35	287.461
1174.46	289.933
1180.58	305.22
1186.69	307.281
1192.81	310.678
1198.92	326.62
1205.04	325.363
1211.15	326.667
1217.27	357.217
1223.38	356.981
1229.5	367.163
1235.61	386.705
1241.73	377.62
1247.84	416.647
1253.96	431.044
1260.07	449.519
1266.19	471.595
1272.3	497.384
1278.42	505.209
1284.53	548.989
1290.65	595.608
1296.76	643.078
1302.88	672.897
1308.99	728.659
1315.11	767.39
1321.22	809.648
1327.34	875.386
1333.45	887.326
1339.57	912.487
1345.68	930.996
1351.8	922.497
1357.91	871.81
1364.03	843.334
1370.14	827.226
1376.26	763.09
1382.37	728.673
1388.49	690.924
1394.6	640.842
1400.72	610.834
1406.83	580.332
1412.95	568.754
1419.06	552.04
1425.18	512.734
1431.29	542.862
1437.41	501.962
1443.53	511.43
1449.64	476.227
1455.76	498.839
1461.87	474.372
1467.99	493.517
1474.1	465.736
1480.22	456.926
1486.33	487.349
1492.45	481.543
1498.56	486.667
1504.68	477.074
1510.79	501.154
1516.91	492.939
1523.02	493.185
1529.14	522.129
1535.25	537.169
1541.37	543.917
1547.48	589.903
1553.6	631.721
1559.71	672.261
1565.83	716.183
1571.94	755.05
1578.06	814.26
1584.17	850.407
1590.29	880.678
1596.4	874.987
1602.52	857.076
1608.63	810.981
1614.75	728.888
1620.86	663.397
1626.98	578.839
1633.09	491.435
1639.21	432.352
1645.32	363.87
1651.44	315.286
1657.55	267.037
1663.67	236.789
1669.78	218.063
1675.9	182.596
1682.01	168.806
1688.13	152.726
1694.24	145.172
1700.36	139.932
1706.47	121.455
1712.59	126
1718.71	116.286
1724.82	121.018
1730.94	114.907
1737.05	108.501
1743.17	107.827
1749.28	94.3385
1755.4	107.723
1761.51	98.4009
1767.63	101.633
1773.74	95.4432
1779.86	101.717
1785.97	92.7552
1792.09	94.484
1798.2	99.8049
1804.32	96.1039
1810.43	97.1084
1816.55	94.6091
1822.66	91.8224
1828.78	86.2524
1834.89	91.4913
1841.01	88.1309
1847.12	84.0202
1853.24	81.7871
1859.35	91.7224
1865.47	86.6196
1871.58	92.8345
1877.7	94.064
1883.81	88.9508
1889.93	88.5668
1896.04	86.112
1902.16	95.0811
1908.27	86.4278
1914.39	86.3333
1920.5	83.0854
1926.62	88.5258
1932.73	92.6645
1938.85	87.9228
1944.96	87.9251
1951.08	94.4134
1957.19	89.2974
1963.31	84.2351
1969.42	87.1646
1975.54	88.1413
1981.65	87.8851
1987.77	93.7869
1993.88	92.4506
2000	91.0374