Folder: Graphs/Example Data/Raman/CNT - TIM/Raytheon/Al foil/2010/05-13-10 (part 2)

File: R3-sideB.txt
300	152.578
306.115	162.904
312.23	156.16
318.345	152.238
324.46	149.434
330.576	158.013
336.691	151.02
342.806	146.148
348.921	140.618
355.036	149.383
361.151	141.781
367.266	141.535
373.381	139.994
379.496	138.117
385.612	138.768
391.727	149.42
397.842	144.392
403.957	136.18
410.072	141.667
416.187	138.984
422.302	127.985
428.417	133.757
434.532	133.871
440.647	139.92
446.763	129.82
452.878	129.073
458.993	125.01
465.108	123.026
471.223	133.115
477.338	126.838
483.453	123.759
489.568	128.646
495.683	124.281
501.799	113.696
507.914	114.52
514.029	121.441
520.144	122.813
526.259	114.758
532.374	120.525
538.489	119.698
544.604	127.245
550.719	120.094
556.835	118.702
562.95	116.981
569.065	118.511
575.18	121.53
581.295	129.7
587.41	128.914
593.525	128.38
599.64	121.069
605.755	125.454
611.87	121.797
617.986	123.374
624.101	120.694
630.216	132.014
636.331	126.663
642.446	127.62
648.561	127.495
654.676	135.472
660.791	132.958
666.906	136.368
673.022	121.889
679.137	137.821
685.252	121.008
691.367	138.357
697.482	139.646
703.597	140.691
709.712	138.982
715.827	145.763
721.942	141.536
728.058	135.418
734.173	143.179
740.288	148.015
746.403	152.655
752.518	159.953
758.633	160.246
764.748	160.602
770.863	165.98
776.978	162.296
783.094	161.805
789.209	167.87
795.324	168.726
801.439	172.523
807.554	171.333
813.669	175.723
819.784	169.5
825.899	182.594
832.014	183.254
838.13	169.312
844.245	177.413
850.36	183.493
856.475	176.708
862.59	174.85
868.705	176.211
874.82	166.866
880.935	168.579
887.05	152.17
893.165	160.49
899.281	155.363
905.396	140.112
911.511	149.584
917.626	147.883
923.741	142.295
929.856	146.274
935.971	144.321
942.086	148.631
948.201	141.308
954.317	139.768
960.432	152.07
966.547	150.467
972.662	143.026
978.777	147.538
984.892	154.455
991.007	149.064
997.122	151.036
1003.24	151.333
1009.35	163.461
1015.47	179.663
1021.58	184.46
1027.7	180.782
1033.81	201.981
1039.93	192.67
1046.04	212.077
1052.16	194.529
1058.27	210.482
1064.39	211.374
1070.5	204.087
1076.62	210.544
1082.73	218.963
1088.85	229.848
1094.96	227.582
1101.08	230.598
1107.19	231.589
1113.31	252.546
1119.42	257.571
1125.54	262.898
1131.65	262.38
1137.77	291.341
1143.88	300.122
1150	309.483
1156.12	309.674
1162.23	328.485
1168.35	335.585
1174.46	341.566
1180.58	352.025
1186.69	358.634
1192.81	355.671
1198.92	370.113
1205.04	386.594
1211.15	386.728
1217.27	384.189
1223.38	407.171
1229.5	425.398
1235.61	434.005
1241.73	446.31
1247.84	471.616
1253.96	491.22
1260.07	513.443
1266.19	541.625
1272.3	561.913
1278.42	585.795
1284.53	623.563
1290.65	657.127
1296.76	687.766
1302.88	727.626
1308.99	795.577
1315.11	807.9
1321.22	870.935
1327.34	937.536
1333.45	919.597
1339.57	973.515
1345.68	951.388
1351.8	970.6
1357.91	971.981
1364.03	912.584
1370.14	897.27
1376.26	849.91
1382.37	817.727
1388.49	764.465
1394.6	738.123
1400.72	676.206
1406.83	675.394
1412.95	636.754
1419.06	624.4
1425.18	617.271
1431.29	604.037
1437.41	568.758
1443.53	558.441
1449.64	561.206
1455.76	561.798
1461.87	564.91
1467.99	550.711
1474.1	539.335
1480.22	571.106
1486.33	533.56
1492.45	548.538
1498.56	552.486
1504.68	541.408
1510.79	542.356
1516.91	568.346
1523.02	564.56
1529.14	560.814
1535.25	587.784
1541.37	607.654
1547.48	612.941
1553.6	656.246
1559.71	696.958
1565.83	721.278
1571.94	791.946
1578.06	844.377
1584.17	930.229
1590.29	985.184
1596.4	999.649
1602.52	1041.36
1608.63	998.721
1614.75	881.7
1620.86	801.98
1626.98	688.482
1633.09	579.543
1639.21	512.812
1645.32	432.128
1651.44	377.035
1657.55	332.272
1663.67	272.27
1669.78	228.751
1675.9	212.018
1682.01	187.132
1688.13	161.349
1694.24	153.824
1700.36	149.883
1706.47	129.727
1712.59	114.287
1718.71	120.923
1724.82	114.066
1730.94	106.458
1737.05	109.083
1743.17	103.121
1749.28	101.569
1755.4	100.945
1761.51	97.4434
1767.63	98.2321
1773.74	96.3471
1779.86	94.8814
1785.97	93.2323
1792.09	92.9077
1798.2	90.7656
1804.32	92.7105
1810.43	86.4641
1816.55	95.4856
1822.66	87.032
1828.78	92.1098
1834.89	97.6641
1841.01	93.3685
1847.12	95.1919
1853.24	84.4675
1859.35	96.1147
1865.47	92.3783
1871.58	82.508
1877.7	89.7946
1883.81	86.5853
1889.93	82.3376
1896.04	83.1858
1902.16	87.1489
1908.27	87.3333
1914.39	84.1772
1920.5	89.0312
1926.62	87.4399
1932.73	92.9669
1938.85	84.4634
1944.96	83.595
1951.08	94.8064
1957.19	87.1631
1963.31	87.9901
1969.42	84.7284
1975.54	91.8927
1981.65	88.9638
1987.77	84.7254
1993.88	91.848
2000	87.0562