Folder: Graphs/Example Data/Raman/CNT - TIM/Raytheon/Al foil/2010/06-08-10

Note: README.md
# Graphs
A macOS app that manages the organization of data files and graphs them.

Licensed under the MIT licensing terms: https://opensource.org/licenses/MIT

Hildreth wrote the precursor to Graphs, then called GraphBase, during his Ph.D. to help manage the data he was collecting as part of his research on Metal-assisted Chemical Etching of Silicon.  He was becoming overwhelmed by the hundreds of data files he was collecting every week and was inspired by the Papers and iTunes applications on OS X (now macOS) to create an application that managed data.  GraphBase provided an easy template to create a parser, a simple UI to organize data into hiarchical folders, and leveraged the DataGraph framework (http://www.visualdatatools.com/DataGraph/Framework/) for graphing.  DataGraph (http://www.visualdatatools.com/DataGraph/) is an amazing 2D graphing application and you will need to purchase a DataGraph license from Visual Data Tools in order to use Graphs.

Graphs is a rewrite of GraphBase in Swift written by Connor and then re-written again by Hildreth that has been open sourced for use by all.  Please not that you will need a DataGraph license to create the graph templates used by the DataGraph framework underlying Graphs.  Hildreth plans to continue evolving this application.  The next plan improvements are: multithreading for import and parsing using the new Results type in Swift; and begin switching over to SwiftUI for the UI.  Long term, we hope to add support for data analysis and extraction.

# Overview
Graphs is a data management tool that allows you to store your raw data files in a text formate (CSV, tab delimited, etc.) and then have those files parsed and graphed when selected.  Graphs uses the DataGraph fromework 

To use Graphs, first you create an example graph, what we call a Graph Template, in DataGraph.  Format the graph the way you want it to look and make sure that the Data Columns are in the same order as the columns in your data.  Next, you  add your "Graph Template" to Graphs using either the Graph Template Inspector on the right side of Graphs using using the "+" sign on the bottom left of the application.  You can also drag-and-drop the file onto a folder in the Source List.  Once you add a Graph Template, you can assign it to be the default Graph Template for a folder and any sub-folders using the Folder Inspector.

The second step is to make a Paser using the Parser Inspector.  It might be helpful to have an example file already in Graphs (see Step 3) because you can use the Text Inspector to see what lines your Experimental Details, Header, and Data start at.  Add a Parse Template using the + sign in the Parse Inspector's table and give the Parse Template a name.  If your data has experimental details at the top, then select the checkbox and set the starting and ending lines for this information.  If your data has a Header, select the Header checkbox, give it starting and ending line numbers, and then select the type of s

File: Ola - B7 - bottom.txt
300	350.914
307.442	360.538
314.883	341.234
322.325	347.114
329.766	354.586
337.208	350.166
344.649	330.228
352.091	335.994
359.532	327.567
366.974	331.39
374.415	320.984
381.857	317.59
389.298	325.444
396.74	321.304
404.181	313.202
411.623	314.188
419.064	301.51
426.506	316.667
433.948	301.364
441.389	311.106
448.831	316.854
456.272	288.07
463.714	298.24
471.155	287.118
478.597	280.453
486.038	280.364
493.48	270.811
500.921	266.324
508.363	261.411
515.804	269.822
523.246	248.003
530.687	258.523
538.129	255.597
545.57	258.757
553.012	256.945
560.454	270.614
567.895	268.931
575.337	263.096
582.778	273.318
590.22	273.667
597.661	282.965
605.103	268.015
612.544	281.787
619.986	272.71
627.427	334.905
634.869	279.301
642.31	296.992
649.752	280.07
657.193	281.576
664.635	294.579
672.077	288.523
679.518	291.106
686.96	300.283
694.401	286.96
701.843	302.451
709.284	304.101
716.726	319.667
724.167	303.991
731.609	321.562
739.05	334.515
746.492	328.268
753.933	344.202
761.375	341.487
768.816	351.912
776.258	350.876
783.7	361.374
791.141	367.68
798.583	371.943
806.024	378.31
813.466	386.243
820.907	387.747
828.349	397.644
835.79	385.165
843.232	399.072
850.673	402.379
858.115	406.961
865.556	382.067
872.998	364.511
880.439	365.129
887.881	351.364
895.322	348.055
902.764	339.578
910.206	331.978
917.647	308.174
925.089	320.631
932.53	329.086
939.972	290.44
947.413	337.131
954.855	325.671
962.296	330.02
969.738	321.332
977.179	324.611
984.621	342.396
992.062	362.896
999.504	379.329
1006.95	389.909
1014.39	397.193
1021.83	394.175
1029.27	431.757
1036.71	422.878
1044.15	448.826
1051.59	448.994
1059.04	460.151
1066.48	483.698
1073.92	489.684
1081.36	515.492
1088.8	512.603
1096.24	530.304
1103.69	535.895
1111.13	571.465
1118.57	576.697
1126.01	596.238
1133.45	607.023
1140.89	647.085
1148.33	677.187
1155.78	701.674
1163.22	724.336
1170.66	749.698
1178.1	734.44
1185.54	774.545
1192.98	789.953
1200.43	770.036
1207.87	837.731
1215.31	883.392
1222.75	901.427
1230.19	933.708
1237.63	967.553
1245.07	988.178
1252.52	1051.9
1259.96	1104.71
1267.4	1215.82
1274.84	1268.83
1282.28	1380.19
1289.72	1485.71
1297.17	1620.32
1304.61	1767.16
1312.05	1969.12
1319.49	2096.12
1326.93	2296.23
1334.37	2454.07
1341.81	2484.32
1349.26	2519.69
1356.7	2397.26
1364.14	2251.61
1371.58	2095.16
1379.02	1903.02
1386.46	1789.32
1393.91	1628.89
1401.35	1516.7
1408.79	1455.88
1416.23	1315.46
1423.67	1314.28
1431.11	1285.45
1438.55	1237.12
1446	1213.38
1453.44	1193.04
1460.88	1199.36
1468.32	1172.23
1475.76	1198.65
1483.2	1185.65
1490.64	1179.01
1498.09	1222.51
1505.53	1190.43
1512.97	1227.77
1520.41	1225.98
1527.85	1309.59
1535.29	1341.68
1542.74	1468.25
1550.18	1595.45
1557.62	1769.85
1565.06	1924.58
1572.5	2109.34
1579.94	2300.45
1587.38	2459.47
1594.83	2507.11
1602.27	2430.54
1609.71	2236.53
1617.15	1998.76
1624.59	1673.54
1632.03	1368.88
1639.48	1109.38
1646.92	900.703
1654.36	752.339
1661.8	608.469
1669.24	518.625
1676.68	441.309
1684.12	383.843
1691.57	363.782
1699.01	319.85
1706.45	293.059
1713.89	299.336
1721.33	271.655
1728.77	259.148
1736.22	241.729
1743.66	243.29
1751.1	228.274
1758.54	221.058
1765.98	223.246
1773.42	224.683
1780.86	217.869
1788.31	203.519
1795.75	199.014
1803.19	213.239
1810.63	208.035
1818.07	214.549
1825.51	204.142
1832.96	201.221
1840.4	212.368
1847.84	197.929
1855.28	204.331
1862.72	216.41
1870.16	187.879
1877.6	197.189
1885.05	200.132
1892.49	198.238
1899.93	194.901
1907.37	196.831
1914.81	190.214
1922.25	185.76
1929.7	193.975
1937.14	201.576
1944.58	190.716
1952.02	200.673
1959.46	205.236
1966.9	197.486
1974.34	196.377
1981.79	204.296
1989.23	192.593
1996.67	198.333
2004.11	198.258
2011.55	190.931
2018.99	194.179
2026.44	196.805
2033.88	203.952
2041.32	199.494
2048.76	195.898
2056.2	202.858
2063.64	198.994
2071.08	206.174
2078.53	193.042
2085.97	191.56
2093.41	194.312
2100.85	190.096
2108.29	194.685
2115.73	205.876
2123.18	196.496
2130.62	198.479
2138.06	194.994
2145.5	191.223
2152.94	193.493
2160.38	202.408
2167.82	203.934
2175.27	202.825
2182.71	207.058
2190.15	202.346
2197.59	211.663
2205.03	207.85
2212.47	212.934
2219.92	205.913
2227.36	205.265
2234.8	206.402
2242.24	201.449
2249.68	208.464
2257.12	204.318
2264.56	225.144
2272.01	217.099
2279.45	215.961
2286.89	223.457
2294.33	230.003
2301.77	220.37
2309.21	227.677
2316.65	227.173
2324.1	231.722
2331.54	334.1
2338.98	239.692
2346.42	231.743
2353.86	241.98
2361.3	243.25
2368.75	241.746
2376.19	256.152
2383.63	267.213
2391.07	264.375
2398.51	290.262
2400	275.535

File: Ola - B7 - top_2.txt
300	384.826
307.442	413.126
314.883	402.209
322.325	395.257
329.766	383.731
337.208	393.668
344.649	376.2
352.091	389.803
359.532	372.783
366.974	389.791
374.415	371.93
381.857	361.306
389.298	343.387
396.74	359.283
404.181	364.548
411.623	353.842
419.064	342.278
426.506	351.595
433.948	342.993
441.389	339.569
448.831	333.312
456.272	324.8
463.714	315.187
471.155	327.229
478.597	310.254
486.038	309.825
493.48	295.208
500.921	293.652
508.363	294.856
515.804	297.888
523.246	294.881
530.687	280.37
538.129	287.595
545.57	295.325
553.012	303.176
560.454	294.535
567.895	292.089
575.337	306.471
582.778	295.04
590.22	307.104
597.661	309.702
605.103	308.197
612.544	294.321
619.986	308.753
627.427	306.338
634.869	317.447
642.31	310.106
649.752	319.974
657.193	339.818
664.635	326.259
672.077	331.758
679.518	316.208
686.96	312.707
694.401	337.398
701.843	329.683
709.284	341.863
716.726	324.165
724.167	354.711
731.609	354.466
739.05	359.961
746.492	349.56
753.933	381.65
761.375	372.86
768.816	371.506
776.258	357.116
783.7	388.129
791.141	383.938
798.583	380.457
806.024	379.746
813.466	405.486
820.907	402.717
828.349	405.154
835.79	400.523
843.232	421.304
850.673	411.796
858.115	424.324
865.556	431.828
872.998	392.789
880.439	377.898
887.881	378.182
895.322	364.205
902.764	343.726
910.206	366.387
917.647	344.821
925.089	345.303
932.53	355.449
939.972	360.811
947.413	340.764
954.855	345.041
962.296	355.025
969.738	345.741
977.179	351.465
984.621	360.292
992.062	380.406
999.504	392.663
1006.95	393.659
1014.39	415.249
1021.83	425.887
1029.27	425.742
1036.71	446.707
1044.15	464.361
1051.59	504.124
1059.04	491.418
1066.48	494.083
1073.92	489.591
1081.36	519.622
1088.8	521.629
1096.24	537.565
1103.69	542.718
1111.13	545.473
1118.57	594.435
1126.01	587.661
1133.45	627.473
1140.89	637.103
1148.33	670.911
1155.78	675.674
1163.22	690.987
1170.66	712.73
1178.1	736.52
1185.54	724.051
1192.98	756.064
1200.43	792.558
1207.87	803.638
1215.31	842.706
1222.75	844.177
1230.19	891.729
1237.63	945.083
1245.07	995.237
1252.52	1041.83
1259.96	1091.52
1267.4	1163.72
1274.84	1211.36
1282.28	1310.53
1289.72	1425.86
1297.17	1525.61
1304.61	1689.49
1312.05	1806.22
1319.49	1981.35
1326.93	2101.29
1334.37	2218.67
1341.81	2249.14
1349.26	2274.2
1356.7	2193.37
1364.14	2085.54
1371.58	1898.04
1379.02	1803.48
1386.46	1684.27
1393.91	1565.41
1401.35	1473.18
1408.79	1401.77
1416.23	1383.4
1423.67	1287.91
1431.11	1242.88
1438.55	1253.3
1446	1227.27
1453.44	1222.55
1460.88	1189.86
1468.32	1187.2
1475.76	1180.91
1483.2	1178.57
1490.64	1181.48
1498.09	1199.51
1505.53	1195.02
1512.97	1216.15
1520.41	1246.92
1527.85	1238.07
1535.29	1308.59
1542.74	1374.41
1550.18	1486.37
1557.62	1611.83
1565.06	1738.08
1572.5	1893.59
1579.94	2026.14
1587.38	2105.9
1594.83	2136.94
1602.27	2062.74
1609.71	1942.4
1617.15	1730.56
1624.59	1477.79
1632.03	1242.32
1639.48	1019.31
1646.92	852.668
1654.36	710.798
1661.8	594.932
1669.24	510.505
1676.68	443.159
1684.12	392.231
1691.57	352.176
1699.01	324.663
1706.45	302.708
1713.89	282.618
1721.33	281.087
1728.77	273.094
1736.22	248.878
1743.66	245.807
1751.1	237.89
1758.54	233.64
1765.98	236.473
1773.42	217.406
1780.86	219.152
1788.31	219.1
1795.75	222.152
1803.19	214.518
1810.63	213.515
1818.07	209.66
1825.51	214.717
1832.96	221.385
1840.4	205.076
1847.84	211.355
1855.28	209.685
1862.72	208.615
1870.16	194.881
1877.6	193.451
1885.05	197.038
1892.49	198.997
1899.93	194.463
1907.37	200.98
1914.81	207.765
1922.25	190.027
1929.7	202.222
1937.14	199.343
1944.58	192.617
1952.02	184.541
1959.46	197.819
1966.9	209.523
1974.34	194.825
1981.79	188.261
1989.23	206.159
1996.67	189.823
2004.11	196.266
2011.55	194.411
2018.99	203.87
2026.44	205.197
2033.88	204.181
2041.32	198.458
2048.76	204.837
2056.2	201.667
2063.64	197.526
2071.08	205.519
2078.53	204.784
2085.97	190.96
2093.41	195.947
2100.85	197.967
2108.29	212.811
2115.73	195.284
2123.18	201.713
2130.62	201.191
2138.06	195.729
2145.5	198.029
2152.94	207.803
2160.38	200.941
2167.82	204.787
2175.27	206.206
2182.71	211.33
2190.15	200.055
2197.59	199.019
2205.03	204.172
2212.47	205.115
2219.92	213.668
2227.36	208.095
2234.8	214.728
2242.24	205.759
2249.68	211.378
2257.12	199.778
2264.56	208.43
2272.01	210.206
2279.45	228.079
2286.89	228.658
2294.33	221.352
2301.77	218.917
2309.21	212.532
2316.65	230.409
2324.1	234.63
2331.54	316.907
2338.98	229.828
2346.42	229.199
2353.86	232.396
2361.3	235.076
2368.75	235.118
2376.19	247.096
2383.63	255.06
2391.07	256.341
2398.51	256.142
2400	265.517

File: Ola - B8 - bottom.txt
300	341.51
307.442	340.815
314.883	357.53
322.325	331.667
329.766	337.379
337.208	351.16
344.649	345.619
352.091	333.691
359.532	334.329
366.974	325.057
374.415	325.344
381.857	325.907
389.298	308.5
396.74	322.433
404.181	325.895
411.623	314.817
419.064	321.045
426.506	309.885
433.948	319.949
441.389	314.497
448.831	293.709
456.272	302.493
463.714	297.467
471.155	283.419
478.597	278.435
486.038	282.346
493.48	262.673
500.921	273.328
508.363	244.056
515.804	250.279
523.246	268.662
530.687	256.355
538.129	253.308
545.57	256.359
553.012	258.926
560.454	258.091
567.895	264.08
575.337	277.43
582.778	270.706
590.22	254.812
597.661	274.832
605.103	269.974
612.544	261.449
619.986	271.629
627.427	279.026
634.869	288.408
642.31	300.924
649.752	292.306
657.193	303.363
664.635	302.01
672.077	308.307
679.518	295.791
686.96	303.675
694.401	305.388
701.843	310.134
709.284	328.006
716.726	323.434
724.167	318.874
731.609	329.4
739.05	335.916
746.492	349.602
753.933	335.584
761.375	337.716
768.816	354.695
776.258	362.721
783.7	354.075
791.141	350.6
798.583	400.114
806.024	366.628
813.466	367.671
820.907	378.874
828.349	385.218
835.79	387.158
843.232	382.51
850.673	407.832
858.115	405.251
865.556	380.669
872.998	368.952
880.439	373.793
887.881	352.197
895.322	334.475
902.764	337.219
910.206	327.361
917.647	339.179
925.089	323.784
932.53	318.972
939.972	321.151
947.413	335.228
954.855	350.64
962.296	339.892
969.738	348.863
977.179	335.394
984.621	337.804
992.062	352.752
999.504	364.668
1006.95	371.345
1014.39	378.239
1021.83	413.499
1029.27	433.916
1036.71	453.254
1044.15	445.301
1051.59	491.231
1059.04	472.947
1066.48	482.779
1073.92	509.035
1081.36	514.73
1088.8	542.364
1096.24	557.76
1103.69	560.312
1111.13	611.317
1118.57	612.22
1126.01	633.526
1133.45	657.008
1140.89	692.382
1148.33	752.047
1155.78	761.197
1163.22	831.718
1170.66	829.681
1178.1	836.266
1185.54	880.864
1192.98	885.088
1200.43	924.41
1207.87	962.894
1215.31	994.738
1222.75	1050.11
1230.19	1105
1237.63	1114.75
1245.07	1207.71
1252.52	1284.55
1259.96	1350.97
1267.4	1469.79
1274.84	1578.92
1282.28	1686.11
1289.72	1778.81
1297.17	1908.96
1304.61	2074.68
1312.05	2215.39
1319.49	2375.31
1326.93	2544.91
1334.37	2686.06
1341.81	2726.06
1349.26	2716.04
1356.7	2635.04
1364.14	2560.11
1371.58	2414.89
1379.02	2276.66
1386.46	2149.59
1393.91	1997.58
1401.35	1899.6
1408.79	1749.01
1416.23	1683.21
1423.67	1633.33
1431.11	1586.76
1438.55	1545.4
1446	1538.68
1453.44	1486.41
1460.88	1461.79
1468.32	1472.83
1475.76	1439.33
1483.2	1450.25
1490.64	1407.72
1498.09	1478.43
1505.53	1500.64
1512.97	1480.15
1520.41	1506.64
1527.85	1548.02
1535.29	1603.74
1542.74	1658.5
1550.18	1759.84
1557.62	1915.45
1565.06	2054.19
1572.5	2257.15
1579.94	2436.51
1587.38	2675.27
1594.83	2768.02
1602.27	2769.45
1609.71	2613.43
1617.15	2403.96
1624.59	2058.18
1632.03	1671.81
1639.48	1381.96
1646.92	1135.92
1654.36	941.958
1661.8	795.052
1669.24	660.101
1676.68	529.22
1684.12	473.92
1691.57	392.916
1699.01	347.308
1706.45	339.063
1713.89	302.342
1721.33	296.745
1728.77	274.427
1736.22	261.345
1743.66	251.684
1751.1	248.478
1758.54	252.501
1765.98	238.009
1773.42	227.572
1780.86	224.107
1788.31	228.419
1795.75	213.356
1803.19	211.742
1810.63	206.488
1818.07	198.198
1825.51	227.225
1832.96	213.659
1840.4	207.142
1847.84	216.007
1855.28	201.861
1862.72	200.487
1870.16	204.905
1877.6	202.253
1885.05	208.635
1892.49	192.75
1899.93	200.973
1907.37	204.73
1914.81	199.211
1922.25	197.445
1929.7	195.322
1937.14	203.983
1944.58	202.574
1952.02	209.007
1959.46	194.16
1966.9	193.022
1974.34	208
1981.79	199.505
1989.23	198.521
1996.67	201.937
2004.11	205.734
2011.55	217.147
2018.99	211.051
2026.44	210.681
2033.88	204.901
2041.32	209.516
2048.76	198.107
2056.2	199.302
2063.64	214.859
2071.08	204.124
2078.53	202.418
2085.97	200.657
2093.41	200.968
2100.85	197.443
2108.29	203.894
2115.73	208.587
2123.18	201.284
2130.62	197.796
2138.06	204.785
2145.5	209.333
2152.94	202.282
2160.38	202.282
2167.82	211.224
2175.27	221.309
2182.71	206.101
2190.15	207.215
2197.59	207.604
2205.03	210.699
2212.47	205.399
2219.92	213.492
2227.36	216.486
2234.8	222.736
2242.24	212.052
2249.68	211.082
2257.12	210.207
2264.56	229.032
2272.01	241.547
2279.45	232.774
2286.89	221.611
2294.33	234.977
2301.77	227.328
2309.21	225.995
2316.65	240.648
2324.1	235.982
2331.54	362.584
2338.98	237.31
2346.42	244.452
2353.86	244.49
2361.3	251.144
2368.75	252.001
2376.19	269.043
2383.63	274.423
2391.07	290.286
2398.51	266.284
2400	270.671

File: Ola - B8 - top.txt
300	279
307.442	277.928
314.883	284.583
322.325	276.862
329.766	265.553
337.208	268.967
344.649	265.124
352.091	275.981
359.532	260.528
366.974	261.204
374.415	252.804
381.857	244.115
389.298	245.696
396.74	239.244
404.181	244.078
411.623	242.153
419.064	250.303
426.506	248.297
433.948	245.237
441.389	241.662
448.831	231.284
456.272	228.573
463.714	227.532
471.155	237.451
478.597	218.088
486.038	219.067
493.48	203.633
500.921	203.253
508.363	195.127
515.804	206.351
523.246	194.353
530.687	207.083
538.129	191.41
545.57	207.133
553.012	191.491
560.454	196.711
567.895	206.853
575.337	219.715
582.778	210.882
590.22	203.138
597.661	215.119
605.103	220.235
612.544	221.164
619.986	232.546
627.427	232.337
634.869	228.578
642.31	229.72
649.752	234.145
657.193	218.97
664.635	235.368
672.077	227.959
679.518	233.418
686.96	238.144
694.401	240.883
701.843	244.663
709.284	252.94
716.726	255.997
724.167	257.108
731.609	262.306
739.05	274.285
746.492	277.69
753.933	291.02
761.375	281.974
768.816	288.309
776.258	301.907
783.7	300.082
791.141	318.715
798.583	316.048
806.024	323.758
813.466	329.739
820.907	326.65
828.349	330.613
835.79	324.295
843.232	332.747
850.673	347.254
858.115	329.362
865.556	312.791
872.998	309.796
880.439	307.446
887.881	287.273
895.322	271.861
902.764	281.874
910.206	279.888
917.647	261.061
925.089	263.529
932.53	264.723
939.972	259.145
947.413	267.854
954.855	257.323
962.296	265.015
969.738	264.94
977.179	264.85
984.621	295.847
992.062	279.77
999.504	285.999
1006.95	303.24
1014.39	311.535
1021.83	335.11
1029.27	335.247
1036.71	357.025
1044.15	363.23
1051.59	369.597
1059.04	383.88
1066.48	384.539
1073.92	394.59
1081.36	403.946
1088.8	421.865
1096.24	427.307
1103.69	449.873
1111.13	464.1
1118.57	475.929
1126.01	487.432
1133.45	512.548
1140.89	522.091
1148.33	532.618
1155.78	570.793
1163.22	584.028
1170.66	594.327
1178.1	602.264
1185.54	620.986
1192.98	640.368
1200.43	665.649
1207.87	692.883
1215.31	693.239
1222.75	726.448
1230.19	739.742
1237.63	790.882
1245.07	813.48
1252.52	854.364
1259.96	908.461
1267.4	949.199
1274.84	1024.01
1282.28	1114.61
1289.72	1207.26
1297.17	1308.45
1304.61	1419.3
1312.05	1540.47
1319.49	1677.46
1326.93	1795.59
1334.37	1928.09
1341.81	2005.87
1349.26	1977.02
1356.7	1977.62
1364.14	1878.87
1371.58	1758.34
1379.02	1669.84
1386.46	1522.35
1393.91	1461.96
1401.35	1326.8
1408.79	1250.66
1416.23	1216.47
1423.67	1156.13
1431.11	1154.42
1438.55	1091.1
1446	1067.98
1453.44	1053.83
1460.88	1046.79
1468.32	1025.09
1475.76	1004.48
1483.2	1017.9
1490.64	1024.63
1498.09	1048.86
1505.53	1023.2
1512.97	1034.64
1520.41	1083.81
1527.85	1096.46
1535.29	1156.88
1542.74	1210.23
1550.18	1278.33
1557.62	1414.3
1565.06	1516.32
1572.5	1667.27
1579.94	1809
1587.38	1937.68
1594.83	2056.27
1602.27	1998.99
1609.71	1948.52
1617.15	1741.11
1624.59	1504.24
1632.03	1240.09
1639.48	1037.45
1646.92	854.554
1654.36	685.599
1661.8	559.401
1669.24	469.641
1676.68	384.662
1684.12	312.589
1691.57	273.076
1699.01	270.007
1706.45	261.489
1713.89	224.059
1721.33	205.045
1728.77	202.673
1736.22	194.353
1743.66	188.189
1751.1	184.315
1758.54	162.823
1765.98	171.172
1773.42	173.864
1780.86	179.246
1788.31	167.226
1795.75	159.373
1803.19	157.514
1810.63	146.406
1818.07	156.564
1825.51	155.475
1832.96	151.582
1840.4	146.449
1847.84	158.779
1855.28	145.44
1862.72	155.154
1870.16	152.189
1877.6	152.442
1885.05	151.61
1892.49	154.389
1899.93	141.929
1907.37	153.599
1914.81	141.477
1922.25	152.366
1929.7	150.704
1937.14	149.576
1944.58	152.737
1952.02	152.479
1959.46	147.081
1966.9	157.856
1974.34	154.193
1981.79	151.715
1989.23	161.487
1996.67	155.268
2004.11	148.469
2011.55	153.803
2018.99	157.331
2026.44	158.53
2033.88	161.563
2041.32	142.494
2048.76	147.81
2056.2	159.205
2063.64	149.35
2071.08	149.951
2078.53	153.925
2085.97	161.696
2093.41	155.075
2100.85	138.713
2108.29	159.151
2115.73	154.918
2123.18	157.266
2130.62	155.022
2138.06	155.928
2145.5	157.799
2152.94	154.34
2160.38	174.001
2167.82	154.997
2175.27	165.467
2182.71	155.572
2190.15	161.203
2197.59	163.33
2205.03	172.022
2212.47	159.727
2219.92	175.457
2227.36	160.784
2234.8	157.397
2242.24	171.58
2249.68	169.727
2257.12	165.619
2264.56	159.76
2272.01	170.738
2279.45	176.127
2286.89	182.744
2294.33	180.7
2301.77	168.76
2309.21	172.914
2316.65	178.183
2324.1	178.827
2331.54	264.808
2338.98	194.106
2346.42	191.689
2353.86	192.832
2361.3	202.024
2368.75	204.588
2376.19	200.88
2383.63	203.831
2391.07	218.344
2398.51	228.379
2400	227.719

File: Ola - B9 - bottom_2.txt
300	243.737
307.442	251.484
314.883	242.124
322.325	245.664
329.766	253.592
337.208	243.2
344.649	238.924
352.091	229.482
359.532	229.42
366.974	221.542
374.415	225.685
381.857	212.136
389.298	221.656
396.74	219.752
404.181	211.784
411.623	215.79
419.064	220.383
426.506	211.298
433.948	211.484
441.389	207.567
448.831	209.682
456.272	210.35
463.714	205.336
471.155	201.843
478.597	206.227
486.038	194.283
493.48	188.059
500.921	186.564
508.363	164.442
515.804	182.798
523.246	179.101
530.687	177.643
538.129	169.347
545.57	174.568
553.012	176.38
560.454	185.235
567.895	191.79
575.337	186.236
582.778	194.43
590.22	182.368
597.661	190.366
605.103	189.938
612.544	204.248
619.986	202.601
627.427	195.002
634.869	213.315
642.31	201.659
649.752	197.752
657.193	210.939
664.635	206.087
672.077	206.195
679.518	208.395
686.96	206.648
694.401	220.212
701.843	220.931
709.284	225.294
716.726	231.472
724.167	244.684
731.609	239.324
739.05	240.138
746.492	241.362
753.933	256.925
761.375	302.631
768.816	258.356
776.258	262.202
783.7	269.578
791.141	289.782
798.583	272.876
806.024	277.249
813.466	283.319
820.907	301.342
828.349	299.573
835.79	297.533
843.232	305.992
850.673	314.28
858.115	318.578
865.556	292.314
872.998	274.679
880.439	288.031
887.881	266.273
895.322	255.802
902.764	239.861
910.206	235.936
917.647	224.482
925.089	222.283
932.53	222.756
939.972	229
947.413	221.371
954.855	241.276
962.296	223.065
969.738	227.654
977.179	221.001
984.621	233.378
992.062	236.871
999.504	244.331
1006.95	256.591
1014.39	276.948
1021.83	277.864
1029.27	294.418
1036.71	303.517
1044.15	314.403
1051.59	318.63
1059.04	325.695
1066.48	340.51
1073.92	338.517
1081.36	351.819
1088.8	357.812
1096.24	360.421
1103.69	376.408
1111.13	393.335
1118.57	410.472
1126.01	408.752
1133.45	432.506
1140.89	455.369
1148.33	511.984
1155.78	531.264
1163.22	556.593
1170.66	566.09
1178.1	558.761
1185.54	592.196
1192.98	593.38
1200.43	598.715
1207.87	633.678
1215.31	655.399
1222.75	696.213
1230.19	717.954
1237.63	726.085
1245.07	784.984
1252.52	792.285
1259.96	841.502
1267.4	913.496
1274.84	1000.4
1282.28	1048.81
1289.72	1178.96
1297.17	1290.62
1304.61	1416.3
1312.05	1554.34
1319.49	1674.84
1326.93	1847.47
1334.37	1956.13
1341.81	2048.04
1349.26	2064.52
1356.7	1962.66
1364.14	1896.48
1371.58	1744.67
1379.02	1590.48
1386.46	1499.46
1393.91	1372.6
1401.35	1257.99
1408.79	1160.45
1416.23	1116.46
1423.67	1033.77
1431.11	996.31
1438.55	986.779
1446	953.27
1453.44	928.207
1460.88	930.595
1468.32	913.313
1475.76	884.188
1483.2	900.617
1490.64	891.121
1498.09	899.813
1505.53	878.956
1512.97	913.152
1520.41	934.534
1527.85	954.603
1535.29	1005.38
1542.74	1031.7
1550.18	1118.57
1557.62	1228.17
1565.06	1337.59
1572.5	1472.35
1579.94	1610.84
1587.38	1843.5
1594.83	1952.85
1602.27	2013.37
1609.71	1965.09
1617.15	1755.88
1624.59	1488.87
1632.03	1180.75
1639.48	936.346
1646.92	776.467
1654.36	599.784
1661.8	491.647
1669.24	425.858
1676.68	337.197
1684.12	278.384
1691.57	243.234
1699.01	211.108
1706.45	209.235
1713.89	199.662
1721.33	170.898
1728.77	172.059
1736.22	154.398
1743.66	146.419
1751.1	140.892
1758.54	138.276
1765.98	138.882
1773.42	132.664
1780.86	137.636
1788.31	123.914
1795.75	119.376
1803.19	123.288
1810.63	120.865
1818.07	124.44
1825.51	123.787
1832.96	112.956
1840.4	112.244
1847.84	106.282
1855.28	114.244
1862.72	128.923
1870.16	118.453
1877.6	127.175
1885.05	130.201
1892.49	118.006
1899.93	124.027
1907.37	117.338
1914.81	116.126
1922.25	118.992
1929.7	119.729
1937.14	113.098
1944.58	108.567
1952.02	117.399
1959.46	116.899
1966.9	112.174
1974.34	116.728
1981.79	125.344
1989.23	118.857
1996.67	113.195
2004.11	127.237
2011.55	119.814
2018.99	119.785
2026.44	124.318
2033.88	125.566
2041.32	125.961
2048.76	118.544
2056.2	124.302
2063.64	127.492
2071.08	110.085
2078.53	113.972
2085.97	119.857
2093.41	122.011
2100.85	115.474
2108.29	112.439
2115.73	125.445
2123.18	119.652
2130.62	116
2138.06	118.33
2145.5	126.7
2152.94	118.17
2160.38	126.875
2167.82	122.218
2175.27	131.849
2182.71	130.232
2190.15	127.434
2197.59	113.337
2205.03	116.86
2212.47	118.074
2219.92	135.597
2227.36	124.808
2234.8	130.591
2242.24	129.96
2249.68	132.797
2257.12	133.921
2264.56	136.687
2272.01	138.078
2279.45	139.353
2286.89	145.333
2294.33	137.605
2301.77	133.119
2309.21	139.581
2316.65	145.39
2324.1	136.567
2331.54	225.983
2338.98	148.474
2346.42	151.353
2353.86	150.316
2361.3	158.485
2368.75	164.313
2376.19	175.827
2383.63	176.079
2391.07	176.425
2398.51	175.192
2400	187.291