Folder: Graphs/Example Data/Raman/CNT - TIM/Raytheon/Al foil/2010/06-08-10 (part 2)

File: Ola - B9 - top_2.txt
300	230.64
307.442	239.642
314.883	234.283
322.325	236.873
329.766	234.56
337.208	231.828
344.649	233.543
352.091	215.557
359.532	223.36
366.974	218.171
374.415	218.543
381.857	214.016
389.298	206.809
396.74	210.979
404.181	206.585
411.623	208.182
419.064	208.285
426.506	185.767
433.948	199.08
441.389	191.976
448.831	194.2
456.272	186.622
463.714	187.818
471.155	190.725
478.597	185.222
486.038	183.225
493.48	175.397
500.921	169.053
508.363	176.435
515.804	180.652
523.246	176.763
530.687	159.627
538.129	169.625
545.57	173.268
553.012	184.313
560.454	162.985
567.895	176.061
575.337	169.62
582.778	169.116
590.22	173.556
597.661	171.631
605.103	184.682
612.544	176.079
619.986	173.559
627.427	190.653
634.869	181.685
642.31	195.015
649.752	192.35
657.193	188.94
664.635	196.492
672.077	193.098
679.518	205.351
686.96	212.333
694.401	198.725
701.843	211.043
709.284	211.176
716.726	218.37
724.167	220.892
731.609	236.848
739.05	227.747
746.492	231.286
753.933	227.313
761.375	246.577
768.816	240.818
776.258	245.69
783.7	257.836
791.141	254.111
798.583	282.8
806.024	266.238
813.466	272.383
820.907	270.823
828.349	276.069
835.79	283.793
843.232	276.663
850.673	287.885
858.115	282.631
865.556	276.669
872.998	269.046
880.439	261.947
887.881	246.47
895.322	244.447
902.764	218.954
910.206	216.721
917.647	222.785
925.089	209.105
932.53	208.921
939.972	216.239
947.413	207.109
954.855	197.687
962.296	210.228
969.738	215.78
977.179	206.162
984.621	219.406
992.062	225.446
999.504	224.666
1006.95	237.207
1014.39	238.135
1021.83	245.099
1029.27	261.411
1036.71	260.256
1044.15	278.934
1051.59	281.987
1059.04	285.958
1066.48	296.183
1073.92	304.017
1081.36	306.781
1088.8	317.477
1096.24	325.398
1103.69	333.675
1111.13	329.786
1118.57	344.006
1126.01	359.457
1133.45	371.827
1140.89	388.479
1148.33	382.983
1155.78	418.079
1163.22	441.247
1170.66	422.788
1178.1	434.988
1185.54	457.198
1192.98	461.789
1200.43	459.277
1207.87	483.097
1215.31	491.119
1222.75	518.922
1230.19	548.729
1237.63	565.544
1245.07	607.506
1252.52	613.116
1259.96	660.534
1267.4	693.193
1274.84	766.54
1282.28	805.915
1289.72	888.187
1297.17	960.255
1304.61	1066.86
1312.05	1143.64
1319.49	1313.21
1326.93	1430.45
1334.37	1528.84
1341.81	1593.75
1349.26	1611.8
1356.7	1544.93
1364.14	1440.44
1371.58	1352.03
1379.02	1199.67
1386.46	1088.27
1393.91	1020.55
1401.35	950.699
1408.79	873.285
1416.23	829.971
1423.67	824.212
1431.11	769.756
1438.55	738.206
1446	752.445
1453.44	728.684
1460.88	704.571
1468.32	706.587
1475.76	698.495
1483.2	711.565
1490.64	722.583
1498.09	718.798
1505.53	710.682
1512.97	732.931
1520.41	747.572
1527.85	769.819
1535.29	807.756
1542.74	821.468
1550.18	934.303
1557.62	1028.4
1565.06	1109.88
1572.5	1267.97
1579.94	1366.79
1587.38	1433.72
1594.83	1491.92
1602.27	1473.85
1609.71	1377.69
1617.15	1246.21
1624.59	1016.82
1632.03	870.025
1639.48	712.302
1646.92	589.025
1654.36	491.633
1661.8	391.812
1669.24	316.892
1676.68	285.852
1684.12	230.643
1691.57	207.483
1699.01	192.379
1706.45	171.499
1713.89	165.004
1721.33	149.131
1728.77	153.401
1736.22	143.967
1743.66	141.994
1751.1	137.053
1758.54	135.564
1765.98	130.825
1773.42	127.258
1780.86	124.249
1788.31	127.007
1795.75	129.839
1803.19	117.952
1810.63	116.884
1818.07	116.675
1825.51	121.696
1832.96	108.888
1840.4	119.418
1847.84	116
1855.28	112.195
1862.72	112.974
1870.16	111.382
1877.6	114.755
1885.05	115.22
1892.49	109.337
1899.93	113.911
1907.37	108.219
1914.81	111.333
1922.25	114.265
1929.7	117.074
1937.14	109.948
1944.58	107.617
1952.02	107.031
1959.46	111.679
1966.9	107.83
1974.34	119.439
1981.79	115.584
1989.23	115.116
1996.67	118.858
2004.11	120.372
2011.55	120.481
2018.99	126.087
2026.44	112.192
2033.88	114.102
2041.32	119.721
2048.76	116.94
2056.2	114.486
2063.64	111.662
2071.08	113.223
2078.53	110.535
2085.97	116.804
2093.41	106.882
2100.85	109.362
2108.29	113.567
2115.73	100.597
2123.18	112.461
2130.62	112.29
2138.06	114.919
2145.5	113.75
2152.94	109.554
2160.38	113.474
2167.82	117.767
2175.27	109.523
2182.71	127.618
2190.15	122.376
2197.59	123.786
2205.03	124.85
2212.47	116.292
2219.92	117.052
2227.36	121.569
2234.8	120.874
2242.24	130.56
2249.68	123.797
2257.12	121.46
2264.56	118.379
2272.01	122.73
2279.45	127.059
2286.89	144.205
2294.33	129.825
2301.77	123.37
2309.21	122.962
2316.65	141.455
2324.1	135.496
2331.54	218.825
2338.98	147.648
2346.42	140.409
2353.86	146.525
2361.3	147.568
2368.75	144.353
2376.19	150.146
2383.63	160.107
2391.07	166.372
2398.51	168.421
2400	176.39