Folder: Graphs/Example Data/Raman/CNT - TIM/Raytheon/Al foil/2010/06-23-10 (part 2)

File: Batch 12 b - top_2.txt
400	75.605
406.069	85.5306
412.138	87.5775
418.208	94.7659
424.277	89.9559
430.346	92.6545
436.415	87.8478
442.485	88.1939
448.554	84.1752
454.623	91.4857
460.692	87.6663
466.762	86.8592
472.831	88.9759
478.9	82.8046
484.969	78.6935
491.038	82.9874
497.108	70.8577
503.177	79.3086
509.246	70.2687
515.315	69.6483
521.385	75.9715
527.454	73.8605
533.523	74.8836
539.592	65.4509
545.661	66.0267
551.731	68.7359
557.8	82.0979
563.869	75.6674
569.938	74.944
576.008	80.2294
582.077	87.265
588.146	76.2431
594.215	83.6741
600.284	77.0345
606.354	83.8676
612.423	86.9119
618.492	85.275
624.561	83.5729
630.631	81.5436
636.7	95.4509
642.769	83.0766
648.838	85.1221
654.908	88.14
660.977	92.1683
667.046	88.7898
673.115	89.8381
679.184	95.3454
685.254	105.439
691.323	98.9387
697.392	94.8615
703.461	95.4825
709.531	91.6208
715.6	99.7786
721.669	97.099
727.738	97.6692
733.807	106.797
739.877	110.745
745.946	111.897
752.015	114.359
758.084	103.814
764.154	115.073
770.223	114.601
776.292	109.516
782.361	122.287
788.431	123.451
794.5	125.968
800.569	125.389
806.638	133.046
812.707	129.381
818.777	132.133
824.846	129.721
830.915	131.457
836.984	129.225
843.054	140.037
849.123	130.441
855.192	143.126
861.261	123.599
867.331	128.026
873.4	118.918
879.469	131.757
885.538	118.898
891.607	122.135
897.677	110.612
903.746	108.839
909.815	105.763
915.884	97.8329
921.954	102.273
928.023	100.453
934.092	93.0661
940.161	91.3068
946.23	102.537
952.3	96.9615
958.369	97.8773
964.438	107.518
970.507	93.0863
976.577	97.2088
982.646	105.756
988.715	98.0231
994.784	110.671
1000.85	118.546
1006.92	111.179
1012.99	113.772
1019.06	105.324
1025.13	123.64
1031.2	118.984
1037.27	129.761
1043.34	143.345
1049.41	136.708
1055.48	138.066
1061.55	135.333
1067.61	133.389
1073.68	145.914
1079.75	145.775
1085.82	148.85
1091.89	154.448
1097.96	163.436
1104.03	173.045
1110.1	167.027
1116.17	181.607
1122.24	172.361
1128.31	191.027
1134.38	188.984
1140.45	191.143
1146.51	194.979
1152.58	210.093
1158.65	205.154
1164.72	220.945
1170.79	223.009
1176.86	230.497
1182.93	221.71
1189	221.912
1195.07	237.058
1201.14	232.899
1207.21	247.377
1213.28	256.257
1219.35	251.381
1225.41	265.786
1231.48	260.506
1237.55	284.23
1243.62	305.939
1249.69	312.632
1255.76	325.596
1261.83	327.884
1267.9	346.213
1273.97	379.852
1280.04	421.033
1286.11	435.387
1292.18	455.626
1298.25	496.746
1304.31	555.684
1310.38	567.099
1316.45	645.986
1322.52	727.572
1328.59	756.242
1334.66	804.033
1340.73	866.667
1346.8	874.631
1352.87	868.513
1358.94	820.085
1365.01	796.254
1371.08	741.566
1377.15	689.846
1383.21	632.576
1389.28	580.31
1395.35	549.439
1401.42	523.227
1407.49	480.618
1413.56	463.672
1419.63	442.683
1425.7	427.155
1431.77	424.428
1437.84	402.555
1443.91	374.543
1449.98	385.439
1456.05	387.844
1462.11	376.49
1468.18	365.004
1474.25	362.048
1480.32	379.747
1486.39	377.898
1492.46	366.138
1498.53	364.415
1504.6	383.334
1510.67	376.189
1516.74	388.435
1522.81	372.266
1528.88	414.684
1534.95	429.989
1541.01	440.269
1547.08	487.475
1553.15	506.66
1559.22	569.405
1565.29	615.125
1571.36	670.469
1577.43	723.855
1583.5	791.552
1589.57	868.965
1595.64	855.283
1601.71	831.022
1607.78	816.662
1613.85	797.403
1619.91	716.226
1625.98	604.461
1632.05	513.243
1638.12	448.685
1644.19	372.502
1650.26	302.226
1656.33	262.085
1662.4	221.497
1668.47	183.131
1674.54	157.778
1680.61	139.602
1686.68	114.631
1692.75	105.652
1698.81	94.4337
1704.88	83.7977
1710.95	85.5522
1717.02	75.0271
1723.09	75.0543
1729.16	67.8509
1735.23	63.7718
1741.3	59.9188
1747.37	60.4029
1753.44	64.0944
1759.51	54.9524
1765.58	59.2616
1771.65	56.4271
1777.71	56.4094
1783.78	53.2858
1789.85	54.6412
1795.92	54.1249
1801.99	61.2495
1808.06	57.2762
1814.13	57.6446
1820.2	55.8017
1826.27	63.2086
1832.34	59.7264
1838.41	53.2005
1844.48	53.4129
1850.55	58.3953
1856.61	57.2032
1862.68	49.2698
1868.75	59.8481
1874.82	49.9727
1880.89	54.5215
1886.96	52.673
1893.03	54.7415
1899.1	59.612
1905.17	52.9441
1911.24	56.5777
1917.31	52.6225
1923.38	51.5471
1929.45	60.4359
1935.51	51.1207
1941.58	53.0353
1947.65	48.9292
1953.72	51.0319
1959.79	51.2267
1965.86	54.107
1971.93	52.8469
1978	55.8203
1984.07	52.2891
1990.14	48.3143
1996.21	50.8091
2000	58.033