Folder: Graphs/Example Data/Raman/CNT - TIM/Raytheon/Al foil/2010/06-23-10

Note: README.md
# Graphs
A macOS app that manages the organization of data files and graphs them.

Licensed under the MIT licensing terms: https://opensource.org/licenses/MIT

Hildreth wrote the precursor to Graphs, then called GraphBase, during his Ph.D. to help manage the data he was collecting as part of his research on Metal-assisted Chemical Etching of Silicon.  He was becoming overwhelmed by the hundreds of data files he was collecting every week and was inspired by the Papers and iTunes applications on OS X (now macOS) to create an application that managed data.  GraphBase provided an easy template to create a parser, a simple UI to organize data into hiarchical folders, and leveraged the DataGraph framework (http://www.visualdatatools.com/DataGraph/Framework/) for graphing.  DataGraph (http://www.visualdatatools.com/DataGraph/) is an amazing 2D graphing application and you will need to purchase a DataGraph license from Visual Data Tools in order to use Graphs.

Graphs is a rewrite of GraphBase in Swift written by Connor and then re-written again by Hildreth that has been open sourced for use by all.  Please not that you will need a DataGraph license to create the graph templates used by the DataGraph framework underlying Graphs.  Hildreth plans to continue evolving this application.  The next plan improvements are: multithreading for import and parsing using the new Results type in Swift; and begin switching over to SwiftUI for the UI.  Long term, we hope to add support for data analysis and extraction.

# Overview
Graphs is a data management tool that allows you to store your raw data files in a text formate (CSV, tab delimited, etc.) and then have those files parsed and graphed when selected.  Graphs uses the DataGraph fromework 

To use Graphs, first you create an example graph, what we call a Graph Template, in DataGraph.  Format the graph the way you want it to look and make sure that the Data Columns are in the same order as the columns in your data.  Next, you  add your "Graph Template" to Graphs using either the Graph Template Inspector on the right side of Graphs using using the "+" sign on the bottom left of the application.  You can also drag-and-drop the file onto a folder in the Source List.  Once you add a Graph Template, you can assign it to be the default Graph Template for a folder and any sub-folders using the Folder Inspector.

The second step is to make a Paser using the Parser Inspector.  It might be helpful to have an example file already in Graphs (see Step 3) because you can use the Text Inspector to see what lines your Experimental Details, Header, and Data start at.  Add a Parse Template using the + sign in the Parse Inspector's table and give the Parse Template a name.  If your data has experimental details at the top, then select the checkbox and set the starting and ending lines for this information.  If your data has a Header, select the Header checkbox, give it starting and ending line numbers, and then select the type of s

File: Batch 12 - bottom_2.txt
400	113.294
406.069	109.955
412.138	111.8
418.208	109.188
424.277	117.673
430.346	105.805
436.415	108.526
442.485	104.889
448.554	107.524
454.623	102.342
460.692	107.664
466.762	100.797
472.831	111.284
478.9	106.13
484.969	97.4374
491.038	99.3195
497.108	97.8786
503.177	91.3926
509.246	95.394
515.315	86.1689
521.385	97.1098
527.454	89.5969
533.523	92.4971
539.592	89.8462
545.661	91.2934
551.731	92.0613
557.8	93.423
563.869	102.315
569.938	94.7227
576.008	97.7976
582.077	97.4657
588.146	81.9057
594.215	94.3616
600.284	102.796
606.354	89.0616
612.423	102.244
618.492	91.7744
624.561	100.3
630.631	102.982
636.7	101.255
642.769	105.052
648.838	115.466
654.908	107.546
660.977	110.34
667.046	113.53
673.115	105.305
679.184	109.781
685.254	115.703
691.323	120.015
697.392	110.727
703.461	120.382
709.531	118.144
715.6	108.823
721.669	121.568
727.738	119.994
733.807	122.211
739.877	126.548
745.946	116.921
752.015	119.349
758.084	127.389
764.154	139.62
770.223	129.758
776.292	135.909
782.361	139.456
788.431	137.637
794.5	145.776
800.569	150.927
806.638	153.079
812.707	151.134
818.777	142.262
824.846	140.054
830.915	145.112
836.984	156.198
843.054	155.768
849.123	153.604
855.192	151.155
861.261	156.906
867.331	148.989
873.4	142.497
879.469	130.395
885.538	129.017
891.607	134.333
897.677	134.918
903.746	125.697
909.815	113.45
915.884	112.789
921.954	118.545
928.023	117.675
934.092	123.078
940.161	117.535
946.23	115.477
952.3	109.87
958.369	119.14
964.438	123.454
970.507	113.988
976.577	116.096
982.646	127.146
988.715	117.162
994.784	116.801
1000.85	125.114
1006.92	130.564
1012.99	147.72
1019.06	141.565
1025.13	149.411
1031.2	148.409
1037.27	149.47
1043.34	153.784
1049.41	148.021
1055.48	171.644
1061.55	175.286
1067.61	167.261
1073.68	162.068
1079.75	172.039
1085.82	176.354
1091.89	184.001
1097.96	189.7
1104.03	187.348
1110.1	192.701
1116.17	197.189
1122.24	203.984
1128.31	220.141
1134.38	209.466
1140.45	216.586
1146.51	238.585
1152.58	248.695
1158.65	253.609
1164.72	250.806
1170.79	253.499
1176.86	256.43
1182.93	267.823
1189	276.076
1195.07	281.929
1201.14	275.934
1207.21	287.58
1213.28	301.715
1219.35	303.429
1225.41	298.977
1231.48	314.259
1237.55	329.909
1243.62	345.673
1249.69	355.248
1255.76	371.525
1261.83	398.609
1267.9	413.044
1273.97	428.978
1280.04	464.282
1286.11	493.331
1292.18	522.308
1298.25	569.667
1304.31	611.018
1310.38	644.414
1316.45	705.936
1322.52	769.921
1328.59	822.176
1334.66	842.349
1340.73	871.416
1346.8	874.767
1352.87	877.266
1358.94	823.93
1365.01	790.523
1371.08	737.573
1377.15	698.481
1383.21	660.835
1389.28	613.549
1395.35	553.199
1401.42	541.64
1407.49	523.331
1413.56	498.476
1419.63	472.858
1425.7	457.884
1431.77	456.601
1437.84	421.487
1443.91	420.966
1449.98	398.713
1456.05	398.613
1462.11	416.58
1468.18	422.51
1474.25	407.333
1480.32	416.162
1486.39	420
1492.46	407.91
1498.53	422.03
1504.6	402.63
1510.67	425.811
1516.74	441.439
1522.81	419.666
1528.88	438.053
1534.95	444.498
1541.01	489.331
1547.08	514.411
1553.15	546.876
1559.22	586.71
1565.29	643.967
1571.36	685.362
1577.43	761.011
1583.5	797.307
1589.57	854.087
1595.64	846.408
1601.71	832.19
1607.78	793.443
1613.85	748.104
1619.91	660.716
1625.98	577.283
1632.05	508.45
1638.12	414.473
1644.19	361.996
1650.26	295.436
1656.33	254.772
1662.4	218.878
1668.47	196.958
1674.54	161.834
1680.61	141.459
1686.68	132.035
1692.75	116.839
1698.81	104.128
1704.88	101.05
1710.95	92.1192
1717.02	89.1098
1723.09	85.5185
1729.16	81.8591
1735.23	79.1305
1741.3	80.8642
1747.37	76.7663
1753.44	72.668
1759.51	71.6824
1765.58	69.9625
1771.65	71.342
1777.71	71.8975
1783.78	65.612
1789.85	72.0687
1795.92	69.7198
1801.99	65.0162
1808.06	67.6349
1814.13	70.4223
1820.2	70.0286
1826.27	69.7542
1832.34	76.3433
1838.41	71.3928
1844.48	64.0267
1850.55	65.3472
1856.61	64.3379
1862.68	72.1298
1868.75	71.2365
1874.82	67.9186
1880.89	58.244
1886.96	64.3809
1893.03	63.8218
1899.1	69.8233
1905.17	64.0116
1911.24	63.7556
1917.31	65.7128
1923.38	61.5326
1929.45	60.5165
1935.51	61.9325
1941.58	60.4596
1947.65	68.101
1953.72	59.9612
1959.79	66.2041
1965.86	64.5474
1971.93	70.2342
1978	70.3574
1984.07	62.9798
1990.14	66.4025
1996.21	69.0947
2000	58.9208

File: Batch 12 - top_3.txt
400	103.452
406.069	119.691
412.138	117.267
418.208	123.72
424.277	114.743
430.346	115.699
436.415	120.935
442.485	115.223
448.554	119.293
454.623	114.555
460.692	112.444
466.762	112.533
472.831	114.154
478.9	112.276
484.969	109.365
491.038	94.0713
497.108	99.0428
503.177	104.579
509.246	96.3313
515.315	100.041
521.385	112.708
527.454	105.148
533.523	97.9734
539.592	94.2777
545.661	100.44
551.731	107.992
557.8	97.1682
563.869	95.0472
569.938	96.7539
576.008	102.219
582.077	106.166
588.146	107.17
594.215	107.82
600.284	100.404
606.354	102.437
612.423	104.24
618.492	103.659
624.561	106.836
630.631	108.594
636.7	111.627
642.769	117.974
648.838	109.728
654.908	111.241
660.977	120.699
667.046	120.601
673.115	118.74
679.184	111.832
685.254	122.78
691.323	119.371
697.392	111.622
703.461	120.725
709.531	122.869
715.6	123.821
721.669	128.834
727.738	131.327
733.807	128.303
739.877	121.87
745.946	137.485
752.015	125.623
758.084	144.166
764.154	141.199
770.223	144.719
776.292	124.042
782.361	131.402
788.431	151.291
794.5	141.996
800.569	137.687
806.638	157.24
812.707	157.995
818.777	153.94
824.846	146.784
830.915	165.993
836.984	160.378
843.054	168.186
849.123	164.659
855.192	163.16
861.261	168.35
867.331	148.894
873.4	145.781
879.469	137.309
885.538	144.867
891.607	139.948
897.677	140.358
903.746	127.184
909.815	123.436
915.884	129.035
921.954	121.232
928.023	120.762
934.092	117.511
940.161	131.119
946.23	119.964
952.3	117.134
958.369	128.149
964.438	123.503
970.507	121.474
976.577	125.341
982.646	124.626
988.715	122.208
994.784	133.252
1000.85	142.675
1006.92	141.304
1012.99	154.843
1019.06	153.44
1025.13	160.451
1031.2	155.625
1037.27	164.022
1043.34	171.802
1049.41	170.542
1055.48	178.667
1061.55	167.669
1067.61	172.65
1073.68	184.09
1079.75	193.333
1085.82	191.378
1091.89	199.67
1097.96	198.899
1104.03	211.845
1110.1	206.28
1116.17	219.152
1122.24	235.153
1128.31	227.8
1134.38	247.268
1140.45	246.676
1146.51	261.687
1152.58	258.844
1158.65	262.348
1164.72	262.515
1170.79	268.697
1176.86	270.595
1182.93	271.329
1189	291.207
1195.07	282.372
1201.14	286.381
1207.21	294.535
1213.28	303.29
1219.35	320.389
1225.41	328.594
1231.48	325.081
1237.55	345.969
1243.62	369.115
1249.69	377.526
1255.76	380.456
1261.83	430.75
1267.9	447.302
1273.97	436.419
1280.04	495.828
1286.11	521.305
1292.18	562.119
1298.25	626.952
1304.31	661.09
1310.38	715.981
1316.45	823.181
1322.52	862.983
1328.59	917.793
1334.66	969.922
1340.73	1035.43
1346.8	1036.28
1352.87	1008.31
1358.94	945.573
1365.01	916.763
1371.08	861.612
1377.15	796.892
1383.21	735.923
1389.28	663.972
1395.35	643.604
1401.42	591.2
1407.49	570.177
1413.56	537.524
1419.63	528.323
1425.7	505.786
1431.77	481.332
1437.84	473.52
1443.91	478.05
1449.98	479.837
1456.05	460.205
1462.11	458.265
1468.18	461.885
1474.25	454.142
1480.32	462.83
1486.39	447.005
1492.46	454.169
1498.53	471.237
1504.6	459.392
1510.67	466.88
1516.74	494.564
1522.81	477.468
1528.88	536.735
1534.95	546.283
1541.01	568.974
1547.08	606.218
1553.15	665.381
1559.22	739.782
1565.29	788.502
1571.36	855.233
1577.43	899.951
1583.5	964.408
1589.57	1017.95
1595.64	1028.94
1601.71	997.537
1607.78	964.586
1613.85	891.139
1619.91	815.732
1625.98	710.436
1632.05	589.153
1638.12	512.382
1644.19	419.137
1650.26	349.129
1656.33	301.121
1662.4	256.391
1668.47	220.246
1674.54	183.621
1680.61	158.974
1686.68	138.086
1692.75	132.432
1698.81	123.62
1704.88	113.387
1710.95	106.749
1717.02	101.987
1723.09	91.1004
1729.16	103.82
1735.23	94.9041
1741.3	87.938
1747.37	83.9206
1753.44	84.2255
1759.51	84.0384
1765.58	85.7588
1771.65	80.5217
1777.71	77.7625
1783.78	79.6174
1789.85	81.4496
1795.92	80.5838
1801.99	82.0792
1808.06	76.403
1814.13	80.3498
1820.2	79.6088
1826.27	80.792
1832.34	74.8636
1838.41	79.9083
1844.48	79.8281
1850.55	78.1033
1856.61	82.0902
1862.68	76.8676
1868.75	75.2368
1874.82	74.031
1880.89	72.4859
1886.96	69.3098
1893.03	85.1238
1899.1	77.3733
1905.17	75.1212
1911.24	77.1109
1917.31	77.3689
1923.38	77.5471
1929.45	75.7656
1935.51	73.3769
1941.58	75.1364
1947.65	73.0973
1953.72	73.3616
1959.79	70.7318
1965.86	76.5199
1971.93	72.2613
1978	71.147
1984.07	78.2809
1990.14	77.4834
1996.21	77.7617
2000	76.7426

File: Batch 12 a - bottom_1.txt
400	88.6886
406.069	89.3893
412.138	87.3774
418.208	86.7378
424.277	86.9118
430.346	83.7429
436.415	86.4607
442.485	82.97
448.554	84.798
454.623	88.767
460.692	82.777
466.762	77.615
472.831	88.7533
478.9	69.7509
484.969	88.3649
491.038	84.5655
497.108	69.2328
503.177	74.782
509.246	72.9871
515.315	69.3561
521.385	64.0406
527.454	69.972
533.523	66.3782
539.592	77.158
545.661	78.2001
551.731	74.0613
557.8	66.0478
563.869	72.5393
569.938	79.2229
576.008	80.6721
582.077	83.7656
588.146	80.0277
594.215	69.4945
600.284	71.1657
606.354	81.5059
612.423	82.8138
618.492	77.358
624.561	91.0139
630.631	95.173
636.7	84.9607
642.769	81.8289
648.838	84.9813
654.908	85.6582
660.977	89.6688
667.046	94.3798
673.115	82.3143
679.184	87.6594
685.254	96.863
691.323	85.0613
697.392	99.2473
703.461	94.5757
709.531	91.4281
715.6	92.8019
721.669	95.1995
727.738	92.9987
733.807	95.2145
739.877	103.611
745.946	104.661
752.015	115.775
758.084	109.61
764.154	98.3828
770.223	116.131
776.292	120.878
782.361	116.069
788.431	120.823
794.5	112.355
800.569	118.596
806.638	124.985
812.707	127.194
818.777	115.992
824.846	132.018
830.915	131.642
836.984	129.966
843.054	138.029
849.123	130.451
855.192	130.082
861.261	130.709
867.331	121.48
873.4	121.019
879.469	105.823
885.538	118.635
891.607	115.136
897.677	107.562
903.746	98.9233
909.815	96.5046
915.884	97.7633
921.954	97.8686
928.023	88.7553
934.092	93.4915
940.161	89.8151
946.23	94.9287
952.3	95.1607
958.369	92.5091
964.438	100.979
970.507	98.5217
976.577	99.0562
982.646	97.5277
988.715	101.468
994.784	99.1048
1000.85	107.791
1006.92	104.263
1012.99	118.562
1019.06	105.186
1025.13	111.798
1031.2	118.136
1037.27	128.418
1043.34	129.69
1049.41	120.146
1055.48	136.678
1061.55	129.494
1067.61	144.628
1073.68	142.049
1079.75	141.495
1085.82	137.313
1091.89	144.229
1097.96	151.233
1104.03	152.767
1110.1	153.701
1116.17	157.514
1122.24	163.537
1128.31	170.32
1134.38	171.818
1140.45	192.093
1146.51	201.033
1152.58	191.261
1158.65	195.39
1164.72	212.517
1170.79	212.97
1176.86	209.738
1182.93	216.918
1189	218.053
1195.07	216.894
1201.14	221.949
1207.21	231.123
1213.28	231.839
1219.35	237.109
1225.41	246.338
1231.48	255.756
1237.55	277.053
1243.62	276.537
1249.69	284.596
1255.76	305.631
1261.83	318.605
1267.9	332.395
1273.97	359.851
1280.04	390.2
1286.11	412.802
1292.18	439.466
1298.25	449.898
1304.31	500.428
1310.38	529.385
1316.45	578.07
1322.52	677.938
1328.59	697.801
1334.66	764.413
1340.73	797.767
1346.8	833.174
1352.87	817.306
1358.94	773.972
1365.01	760.745
1371.08	717.355
1377.15	650.583
1383.21	597.48
1389.28	545.649
1395.35	512.62
1401.42	468.662
1407.49	466.94
1413.56	424.508
1419.63	413.723
1425.7	389.531
1431.77	383.572
1437.84	369.06
1443.91	360.016
1449.98	358.5
1456.05	349.91
1462.11	359.397
1468.18	356.905
1474.25	343.349
1480.32	352.249
1486.39	341.831
1492.46	350.889
1498.53	331.561
1504.6	349.351
1510.67	348.644
1516.74	349.305
1522.81	369.195
1528.88	382.027
1534.95	391.518
1541.01	418.176
1547.08	423.815
1553.15	467.88
1559.22	524.45
1565.29	573.713
1571.36	588.888
1577.43	692.272
1583.5	735.033
1589.57	751.425
1595.64	799.233
1601.71	800.349
1607.78	766.808
1613.85	728.887
1619.91	670.538
1625.98	574.581
1632.05	506.229
1638.12	426.918
1644.19	350.148
1650.26	288.56
1656.33	236.265
1662.4	195.07
1668.47	161.685
1674.54	147.499
1680.61	124.671
1686.68	112.011
1692.75	94.7105
1698.81	87.6605
1704.88	78.8042
1710.95	71.019
1717.02	68.0038
1723.09	66.6326
1729.16	66.3949
1735.23	57.7883
1741.3	59.9306
1747.37	54.2975
1753.44	52.0287
1759.51	56.6684
1765.58	48.7431
1771.65	52.8271
1777.71	50.5834
1783.78	49.7015
1789.85	51.3847
1795.92	46.4696
1801.99	45.603
1808.06	48.2816
1814.13	44.8741
1820.2	53.5846
1826.27	47.7143
1832.34	54.8645
1838.41	47.198
1844.48	46.5398
1850.55	45.6961
1856.61	44.2918
1862.68	48.9679
1868.75	43.1896
1874.82	50.2298
1880.89	47.1084
1886.96	46.2051
1893.03	41.6204
1899.1	46.2114
1905.17	48.6271
1911.24	50.1999
1917.31	42.4486
1923.38	47.7753
1929.45	51.8132
1935.51	46.2126
1941.58	43.7121
1947.65	47.1785
1953.72	43.5745
1959.79	46.839
1965.86	42.1651
1971.93	43.9159
1978	47.9232
1984.07	44.2449
1990.14	48.8119
1996.21	48.2852
2000	53.5809

File: Batch 12 a - top_2.txt
400	104.86
406.069	100.283
412.138	102.423
418.208	94.5674
424.277	93.6539
430.346	109.446
436.415	98.9363
442.485	100.306
448.554	99.5257
454.623	101.807
460.692	101.111
466.762	93.9038
472.831	91.7341
478.9	98.2797
484.969	84.4232
491.038	100.552
497.108	91.804
503.177	90.8847
509.246	82.0995
515.315	92.9908
521.385	93.2888
527.454	89.2134
533.523	79.4555
539.592	85
545.661	93.0132
551.731	90.9361
557.8	93.5688
563.869	97.5535
569.938	92.3888
576.008	91.6115
582.077	90.0334
588.146	87.8123
594.215	86.1218
600.284	94.998
606.354	88.3901
612.423	103.249
618.492	88.8754
624.561	96.8637
630.631	90.443
636.7	95.9215
642.769	86.7512
648.838	94.227
654.908	97.514
660.977	99.0086
667.046	116.866
673.115	112.432
679.184	102.835
685.254	102.121
691.323	97.9694
697.392	110.951
703.461	110.9
709.531	105.287
715.6	113.487
721.669	109.434
727.738	103.49
733.807	115.609
739.877	115.23
745.946	119.03
752.015	123.333
758.084	115.351
764.154	125.928
770.223	126.118
776.292	121.606
782.361	123.625
788.431	129.557
794.5	134.493
800.569	124.09
806.638	130.298
812.707	147.57
818.777	139.215
824.846	145.063
830.915	145.291
836.984	143.35
843.054	154.462
849.123	153.37
855.192	153.483
861.261	138.632
867.331	133.022
873.4	138.277
879.469	129.765
885.538	134.984
891.607	123.021
897.677	117.229
903.746	111.674
909.815	101.084
915.884	114.842
921.954	106.646
928.023	125.898
934.092	111.647
940.161	100.383
946.23	104.44
952.3	113.161
958.369	108.482
964.438	106.773
970.507	108.851
976.577	110.643
982.646	112.204
988.715	107.856
994.784	120.019
1000.85	118.316
1006.92	125.304
1012.99	124.456
1019.06	122.966
1025.13	131.926
1031.2	132.746
1037.27	146.624
1043.34	152.205
1049.41	150.406
1055.48	142.322
1061.55	147.631
1067.61	143.694
1073.68	151.18
1079.75	155.074
1085.82	167.029
1091.89	170.106
1097.96	171.081
1104.03	181.566
1110.1	178.665
1116.17	200.831
1122.24	191.559
1128.31	195.96
1134.38	212.734
1140.45	231.439
1146.51	221.42
1152.58	244.973
1158.65	228.303
1164.72	249.347
1170.79	248.991
1176.86	255.967
1182.93	270.369
1189	269.488
1195.07	263.73
1201.14	277.854
1207.21	276.733
1213.28	275.633
1219.35	277.076
1225.41	292.854
1231.48	311.842
1237.55	326.132
1243.62	328.691
1249.69	366.321
1255.76	369.841
1261.83	389.869
1267.9	412.18
1273.97	434.653
1280.04	463.583
1286.11	490.64
1292.18	515.139
1298.25	559.667
1304.31	600.985
1310.38	669.22
1316.45	708.321
1322.52	745.68
1328.59	813.311
1334.66	798.414
1340.73	845.946
1346.8	859.738
1352.87	816.251
1358.94	797.058
1365.01	771.158
1371.08	738.554
1377.15	691.286
1383.21	644.57
1389.28	615.076
1395.35	550.568
1401.42	541.093
1407.49	518.361
1413.56	484.19
1419.63	456.542
1425.7	454.094
1431.77	445.441
1437.84	441.799
1443.91	415.932
1449.98	401.434
1456.05	402.98
1462.11	394.498
1468.18	399.539
1474.25	403
1480.32	408.906
1486.39	382.015
1492.46	402.539
1498.53	383.741
1504.6	395.094
1510.67	396.449
1516.74	403.742
1522.81	423.414
1528.88	414.185
1534.95	435.47
1541.01	453.4
1547.08	463.153
1553.15	504.519
1559.22	558.355
1565.29	574.878
1571.36	625.723
1577.43	689.407
1583.5	748.081
1589.57	793.178
1595.64	822.064
1601.71	831.488
1607.78	806.65
1613.85	756.233
1619.91	660.611
1625.98	566.569
1632.05	477.442
1638.12	413.838
1644.19	337.493
1650.26	296.625
1656.33	262.823
1662.4	216.689
1668.47	185.585
1674.54	156.698
1680.61	136.797
1686.68	126.659
1692.75	108.1
1698.81	103.535
1704.88	93.0123
1710.95	91.2604
1717.02	81.6954
1723.09	77.9762
1729.16	78.5137
1735.23	75.7359
1741.3	78.22
1747.37	72.746
1753.44	64.679
1759.51	69.8053
1765.58	58.2404
1771.65	66.6545
1777.71	67.4268
1783.78	66.999
1789.85	63.7012
1795.92	64.1947
1801.99	59.1716
1808.06	57.346
1814.13	60.7915
1820.2	56.5487
1826.27	60.9723
1832.34	63.7883
1838.41	67.6176
1844.48	59.1353
1850.55	59.7756
1856.61	64.7025
1862.68	62.2533
1868.75	59.6372
1874.82	55.7706
1880.89	56.4645
1886.96	58.3734
1893.03	69.9919
1899.1	60.1493
1905.17	56.0094
1911.24	59
1917.31	57.0586
1923.38	59.0145
1929.45	64.1208
1935.51	60.401
1941.58	59.404
1947.65	58.7271
1953.72	56.4432
1959.79	58.3118
1965.86	49.2691
1971.93	64.9069
1978	63.2939
1984.07	63.3738
1990.14	60.2261
1996.21	55.6655
2000	59.7591

File: Batch 12 b - bottom_1.txt
400	114.342
406.069	118.403
412.138	131.489
418.208	123.791
424.277	134.364
430.346	133.303
436.415	128.435
442.485	131.832
448.554	120.87
454.623	120.606
460.692	119.223
466.762	124.581
472.831	113.513
478.9	106.333
484.969	108.076
491.038	109.422
497.108	107.534
503.177	107.009
509.246	114.409
515.315	106.397
521.385	113.037
527.454	104.538
533.523	104.339
539.592	98.5602
545.661	101.92
551.731	103.563
557.8	96.0254
563.869	102.716
569.938	104.548
576.008	103.481
582.077	109.533
588.146	108.524
594.215	110.376
600.284	114.164
606.354	116.983
612.423	112.237
618.492	108.175
624.561	115.343
630.631	125.141
636.7	108.618
642.769	112.881
648.838	128.29
654.908	126.02
660.977	115.832
667.046	112.115
673.115	117.241
679.184	129.895
685.254	130.979
691.323	130.156
697.392	132.008
703.461	129.52
709.531	129.749
715.6	134.24
721.669	128.067
727.738	134.842
733.807	133.854
739.877	122.74
745.946	136.327
752.015	158.768
758.084	142.963
764.154	137.506
770.223	148.706
776.292	150.795
782.361	156.567
788.431	154.422
794.5	157.135
800.569	167.348
806.638	162.875
812.707	164.656
818.777	176.272
824.846	156.36
830.915	158.122
836.984	171.039
843.054	165.093
849.123	165.678
855.192	168.609
861.261	162.471
867.331	159.894
873.4	152.183
879.469	147.597
885.538	150.518
891.607	161.646
897.677	145.699
903.746	146.625
909.815	140.489
915.884	140.693
921.954	133.696
928.023	138.631
934.092	127.983
940.161	130.93
946.23	132.094
952.3	134.337
958.369	135.798
964.438	125.34
970.507	141.381
976.577	131.819
982.646	128.863
988.715	142.301
994.784	146.709
1000.85	145.408
1006.92	148.99
1012.99	160.421
1019.06	157.054
1025.13	165.263
1031.2	171.647
1037.27	170.908
1043.34	188.605
1049.41	190.875
1055.48	186.764
1061.55	191.14
1067.61	193.817
1073.68	212.725
1079.75	207.26
1085.82	218.593
1091.89	221.882
1097.96	223.899
1104.03	229.816
1110.1	236.07
1116.17	246.477
1122.24	253.067
1128.31	263.243
1134.38	274.509
1140.45	278.066
1146.51	283.565
1152.58	323.324
1158.65	321.446
1164.72	328.109
1170.79	324.173
1176.86	332.775
1182.93	336.855
1189	349.571
1195.07	344.402
1201.14	355.61
1207.21	371.219
1213.28	355.314
1219.35	386.809
1225.41	398.617
1231.48	397.328
1237.55	417
1243.62	436.993
1249.69	461.506
1255.76	477.121
1261.83	516.166
1267.9	528.191
1273.97	541.277
1280.04	615.696
1286.11	630.568
1292.18	679.37
1298.25	716.399
1304.31	778.147
1310.38	832.807
1316.45	871.349
1322.52	955.873
1328.59	1001.42
1334.66	1043.86
1340.73	1051.79
1346.8	1068.01
1352.87	1048.06
1358.94	1008.14
1365.01	983.673
1371.08	902.44
1377.15	875.411
1383.21	822.367
1389.28	774.887
1395.35	698.459
1401.42	678.827
1407.49	650.32
1413.56	607.333
1419.63	576.999
1425.7	568.429
1431.77	536.428
1437.84	533.277
1443.91	571.927
1449.98	530.06
1456.05	511.278
1462.11	519.558
1468.18	501.519
1474.25	525.115
1480.32	510.25
1486.39	510.184
1492.46	506.101
1498.53	506.096
1504.6	498.524
1510.67	503.124
1516.74	550.258
1522.81	550.353
1528.88	556.364
1534.95	564.178
1541.01	595.624
1547.08	639.039
1553.15	662.933
1559.22	718.616
1565.29	735.173
1571.36	823.236
1577.43	873.103
1583.5	959.767
1589.57	1010.45
1595.64	1015.84
1601.71	1010.01
1607.78	991.15
1613.85	895.544
1619.91	830.48
1625.98	680.035
1632.05	589.143
1638.12	506.524
1644.19	433.178
1650.26	361.642
1656.33	319.508
1662.4	262.423
1668.47	227.125
1674.54	203.619
1680.61	178.803
1686.68	161.207
1692.75	141.727
1698.81	134.766
1704.88	119.915
1710.95	115.385
1717.02	108.334
1723.09	94.7438
1729.16	108.231
1735.23	101.296
1741.3	98.0873
1747.37	98.0134
1753.44	92.1776
1759.51	92.9929
1765.58	88.9656
1771.65	84.8526
1777.71	91.3336
1783.78	88.7692
1789.85	90.1228
1795.92	84.8613
1801.99	83.5574
1808.06	83.9265
1814.13	81.8716
1820.2	87.972
1826.27	83.5884
1832.34	81.0178
1838.41	80.1828
1844.48	84.3638
1850.55	87.6634
1856.61	77.6949
1862.68	81.9465
1868.75	84.5116
1874.82	78.2672
1880.89	76.2385
1886.96	81.0158
1893.03	74.8735
1899.1	70.9779
1905.17	80.5571
1911.24	78.8222
1917.31	78.1153
1923.38	80.8406
1929.45	83.8754
1935.51	81.4541
1941.58	80.8636
1947.65	77
1953.72	74.7164
1959.79	87.3969
1965.86	82.3914
1971.93	77.1652
1978	84.8156
1984.07	80.7588
1990.14	74.6476
1996.21	80.9531
2000	92.1947