Folder: Graphs/Example Data/Raman/CNT - TIM/Raytheon/Al foil/2010/07-02-10

Note: README.md
# Graphs
A macOS app that manages the organization of data files and graphs them.

Licensed under the MIT licensing terms: https://opensource.org/licenses/MIT

Hildreth wrote the precursor to Graphs, then called GraphBase, during his Ph.D. to help manage the data he was collecting as part of his research on Metal-assisted Chemical Etching of Silicon.  He was becoming overwhelmed by the hundreds of data files he was collecting every week and was inspired by the Papers and iTunes applications on OS X (now macOS) to create an application that managed data.  GraphBase provided an easy template to create a parser, a simple UI to organize data into hiarchical folders, and leveraged the DataGraph framework (http://www.visualdatatools.com/DataGraph/Framework/) for graphing.  DataGraph (http://www.visualdatatools.com/DataGraph/) is an amazing 2D graphing application and you will need to purchase a DataGraph license from Visual Data Tools in order to use Graphs.

Graphs is a rewrite of GraphBase in Swift written by Connor and then re-written again by Hildreth that has been open sourced for use by all.  Please not that you will need a DataGraph license to create the graph templates used by the DataGraph framework underlying Graphs.  Hildreth plans to continue evolving this application.  The next plan improvements are: multithreading for import and parsing using the new Results type in Swift; and begin switching over to SwiftUI for the UI.  Long term, we hope to add support for data analysis and extraction.

# Overview
Graphs is a data management tool that allows you to store your raw data files in a text formate (CSV, tab delimited, etc.) and then have those files parsed and graphed when selected.  Graphs uses the DataGraph fromework 

To use Graphs, first you create an example graph, what we call a Graph Template, in DataGraph.  Format the graph the way you want it to look and make sure that the Data Columns are in the same order as the columns in your data.  Next, you  add your "Graph Template" to Graphs using either the Graph Template Inspector on the right side of Graphs using using the "+" sign on the bottom left of the application.  You can also drag-and-drop the file onto a folder in the Source List.  Once you add a Graph Template, you can assign it to be the default Graph Template for a folder and any sub-folders using the Folder Inspector.

The second step is to make a Paser using the Parser Inspector.  It might be helpful to have an example file already in Graphs (see Step 3) because you can use the Text Inspector to see what lines your Experimental Details, Header, and Data start at.  Add a Parse Template using the + sign in the Parse Inspector's table and give the Parse Template a name.  If your data has experimental details at the top, then select the checkbox and set the starting and ending lines for this information.  If your data has a Header, select the Header checkbox, give it starting and ending line numbers, and then select the type of s

File: Batch 13 - bottom.txt
400	109.457
406.069	120.98
412.138	121.117
418.208	113.256
424.277	119.571
430.346	115.66
436.415	111.154
442.485	109.104
448.554	114.407
454.623	105.712
460.692	107.167
466.762	112.222
472.831	115.432
478.9	100.336
484.969	105.493
491.038	102.978
497.108	100.619
503.177	89.306
509.246	97.8052
515.315	92.0206
521.385	100.988
527.454	96.3348
533.523	92.1477
539.592	92.261
545.661	99.5499
551.731	93.002
557.8	91.5
563.869	98.204
569.938	96.4818
576.008	93.6721
582.077	97.851
588.146	105.909
594.215	100.997
600.284	103.257
606.354	100.129
612.423	98.2793
618.492	108.237
624.561	103.07
630.631	104.993
636.7	97.9191
642.769	102.057
648.838	110.796
654.908	97.9065
660.977	113.012
667.046	101.887
673.115	113.657
679.184	110.991
685.254	120.837
691.323	115.662
697.392	116.461
703.461	121.358
709.531	119.789
715.6	117.138
721.669	117.55
727.738	132.26
733.807	130.181
739.877	127.487
745.946	132.482
752.015	130.832
758.084	126.998
764.154	133.523
770.223	127.025
776.292	134.553
782.361	146.402
788.431	138.437
794.5	141.474
800.569	133.086
806.638	149.013
812.707	152.637
818.777	154.404
824.846	155.013
830.915	158.131
836.984	150.525
843.054	152.556
849.123	154.672
855.192	156.116
861.261	156.679
867.331	143.761
873.4	140.036
879.469	138.775
885.538	131.427
891.607	126.758
897.677	122.41
903.746	129.112
909.815	120.659
915.884	129.026
921.954	123.454
928.023	116.81
934.092	123.229
940.161	128.314
946.23	123.982
952.3	121.669
958.369	121.125
964.438	113.803
970.507	119.121
976.577	123.111
982.646	121.817
988.715	126.542
994.784	138.668
1000.85	130.567
1006.92	138.585
1012.99	145.724
1019.06	140.231
1025.13	157.083
1031.2	150.047
1037.27	161.445
1043.34	159.062
1049.41	175.508
1055.48	176.453
1061.55	174.101
1067.61	176.646
1073.68	179.868
1079.75	185.526
1085.82	187.009
1091.89	192.169
1097.96	194.185
1104.03	199.931
1110.1	207.731
1116.17	217.557
1122.24	217.28
1128.31	234.202
1134.38	237.219
1140.45	255.916
1146.51	241.533
1152.58	244.62
1158.65	250.784
1164.72	266.5
1170.79	270.522
1176.86	276.58
1182.93	277.185
1189	284.027
1195.07	283.145
1201.14	286.319
1207.21	299.719
1213.28	306.626
1219.35	320.549
1225.41	317.712
1231.48	333.111
1237.55	355.84
1243.62	361.681
1249.69	379.195
1255.76	404.156
1261.83	430.144
1267.9	454.456
1273.97	466.808
1280.04	500.069
1286.11	542.371
1292.18	587.831
1298.25	605.349
1304.31	680.799
1310.38	741.98
1316.45	838.936
1322.52	890.536
1328.59	974.313
1334.66	1036.51
1340.73	1033.74
1346.8	1055.36
1352.87	1016.9
1358.94	966.131
1365.01	888.89
1371.08	830.919
1377.15	761.548
1383.21	705.45
1389.28	649.235
1395.35	624.068
1401.42	554.09
1407.49	526.373
1413.56	527.893
1419.63	512.471
1425.7	477.502
1431.77	454.036
1437.84	464.32
1443.91	456.675
1449.98	448.254
1456.05	443.25
1462.11	448.173
1468.18	443.676
1474.25	440.475
1480.32	439.748
1486.39	450.989
1492.46	440.675
1498.53	437.045
1504.6	447.154
1510.67	445.624
1516.74	454.193
1522.81	488.825
1528.88	492.248
1534.95	507.28
1541.01	529.884
1547.08	568.919
1553.15	615.373
1559.22	676.891
1565.29	716.266
1571.36	770.957
1577.43	851.55
1583.5	895.317
1589.57	915.091
1595.64	925.401
1601.71	895.585
1607.78	857.361
1613.85	798.719
1619.91	706.602
1625.98	610.969
1632.05	521.191
1638.12	441.358
1644.19	368.831
1650.26	315.937
1656.33	276.766
1662.4	225.198
1668.47	193.284
1674.54	171.888
1680.61	150.185
1686.68	135.031
1692.75	129.749
1698.81	112.687
1704.88	105.667
1710.95	98.7842
1717.02	97.6588
1723.09	99.0035
1729.16	88.482
1735.23	89.7335
1741.3	85.3844
1747.37	80.5583
1753.44	80.273
1759.51	78.767
1765.58	79.4124
1771.65	82.1893
1777.71	81.6413
1783.78	71.2257
1789.85	75.8062
1795.92	75.1163
1801.99	77.194
1808.06	73.5847
1814.13	71.4411
1820.2	68.7953
1826.27	71.9017
1832.34	74.3104
1838.41	75.1426
1844.48	74.664
1850.55	75.4208
1856.61	74.6447
1862.68	70.322
1868.75	75.1922
1874.82	72.7137
1880.89	71.052
1886.96	69.7478
1893.03	75.4031
1899.1	72.179
1905.17	76.7361
1911.24	72.1833
1917.31	67.129
1923.38	70.4402
1929.45	66.2665
1935.51	69.7246
1941.58	71.8825
1947.65	78.4929
1953.72	67.8352
1959.79	76.7496
1965.86	70.2202
1971.93	69.9415
1978	68.5346
1984.07	67.1657
1990.14	75.5982
1996.21	67.8938
2000	72.6658

File: Batch 13 - top.txt
400	86.3322
406.069	93.914
412.138	92.1834
418.208	92.6622
424.277	97.4191
430.346	87.25
436.415	89.9231
442.485	88.1257
448.554	87.1014
454.623	86.6137
460.692	84.8334
466.762	86.7189
472.831	79.8845
478.9	81.0057
484.969	77.7837
491.038	81.3371
497.108	71.3493
503.177	75.8995
509.246	78.5291
515.315	79.2706
521.385	80.1466
527.454	77.3431
533.523	71.9065
539.592	72.8398
545.661	75.96
551.731	75.37
557.8	74.3823
563.869	74.5725
569.938	75.6066
576.008	73.5617
582.077	84.4994
588.146	73.6323
594.215	86.3736
600.284	81.2574
606.354	78.8191
612.423	78.0711
618.492	81.3872
624.561	80.8945
630.631	76.2674
636.7	77.9119
642.769	87.641
648.838	86.5657
654.908	94.3467
660.977	98.2428
667.046	94.8032
673.115	96.1833
679.184	94.5363
685.254	87.6648
691.323	89.3431
697.392	95.4606
703.461	98.0106
709.531	93.1055
715.6	97.056
721.669	96.6979
727.738	100.628
733.807	95.9827
739.877	100.525
745.946	108.582
752.015	107.669
758.084	115.86
764.154	115.914
770.223	110.652
776.292	118.242
782.361	117.215
788.431	112.415
794.5	125.101
800.569	119.432
806.638	120.38
812.707	126.178
818.777	130.397
824.846	129.386
830.915	131.204
836.984	128.601
843.054	134.127
849.123	128.97
855.192	139.591
861.261	133.237
867.331	127.78
873.4	127.174
879.469	118.33
885.538	116.775
891.607	103.453
897.677	102.981
903.746	108.233
909.815	96.3681
915.884	99.2441
921.954	95.2119
928.023	84.9372
934.092	94.2522
940.161	90.1782
946.23	94.8925
952.3	97.8088
958.369	92.2495
964.438	94.8244
970.507	98.7411
976.577	91.756
982.646	93.6096
988.715	96.3541
994.784	103.911
1000.85	108.265
1006.92	109.508
1012.99	107
1019.06	110.867
1025.13	117.293
1031.2	121.868
1037.27	119.463
1043.34	117.266
1049.41	122.695
1055.48	129.614
1061.55	137.681
1067.61	139.396
1073.68	129.844
1079.75	144.537
1085.82	135.262
1091.89	144.913
1097.96	143.95
1104.03	147.848
1110.1	155.546
1116.17	159.63
1122.24	160.575
1128.31	162.046
1134.38	173.005
1140.45	181.503
1146.51	181.208
1152.58	185.126
1158.65	190.815
1164.72	188.044
1170.79	193.68
1176.86	193.672
1182.93	206.318
1189	203.334
1195.07	206.493
1201.14	206.051
1207.21	216.42
1213.28	222.993
1219.35	224.338
1225.41	219.085
1231.48	238.487
1237.55	252.704
1243.62	254.273
1249.69	272.474
1255.76	292.196
1261.83	295.451
1267.9	302.921
1273.97	338.51
1280.04	365.464
1286.11	384.069
1292.18	399.639
1298.25	450.962
1304.31	487.765
1310.38	530.043
1316.45	612.359
1322.52	649.345
1328.59	713.318
1334.66	770.56
1340.73	796.852
1346.8	821.302
1352.87	827.3
1358.94	809.978
1365.01	733.745
1371.08	680.322
1377.15	613.201
1383.21	577.48
1389.28	534.143
1395.35	480.367
1401.42	456.46
1407.49	459.77
1413.56	414.575
1419.63	386.199
1425.7	382.149
1431.77	366.429
1437.84	356.371
1443.91	340.134
1449.98	339.245
1456.05	338.722
1462.11	338.424
1468.18	341.907
1474.25	330.477
1480.32	343.999
1486.39	337.71
1492.46	329.591
1498.53	326.332
1504.6	335.721
1510.67	337.378
1516.74	341.596
1522.81	361.423
1528.88	377.541
1534.95	372.896
1541.01	382.782
1547.08	417.919
1553.15	478.42
1559.22	513.478
1565.29	533.004
1571.36	603.528
1577.43	627.144
1583.5	700.878
1589.57	723.821
1595.64	741.323
1601.71	728.886
1607.78	725.415
1613.85	695.361
1619.91	640.364
1625.98	558.115
1632.05	479.131
1638.12	388.896
1644.19	331.448
1650.26	277.87
1656.33	243.52
1662.4	200.765
1668.47	158.917
1674.54	137.864
1680.61	112.021
1686.68	101.649
1692.75	88.4131
1698.81	80.984
1704.88	75.3985
1710.95	69.0816
1717.02	62.9188
1723.09	61.426
1729.16	59.9491
1735.23	55.5075
1741.3	54.0541
1747.37	51.8791
1753.44	50.5185
1759.51	48.3292
1765.58	51.2473
1771.65	45.5037
1777.71	51.7553
1783.78	45.2788
1789.85	45.5273
1795.92	44.6538
1801.99	45.0205
1808.06	45.2037
1814.13	42.082
1820.2	43.6289
1826.27	45.2503
1832.34	46.5344
1838.41	46.6349
1844.48	52.5009
1850.55	42.4565
1856.61	47.9629
1862.68	43.9432
1868.75	53.0958
1874.82	41.6684
1880.89	45.3819
1886.96	43.129
1893.03	46.2112
1899.1	38.1885
1905.17	42.5245
1911.24	43.6835
1917.31	41.4308
1923.38	47.451
1929.45	48.8544
1935.51	43.9276
1941.58	39.5152
1947.65	44.2904
1953.72	45.2367
1959.79	41.7015
1965.86	45.7362
1971.93	44.7477
1978	47.3552
1984.07	44.9848
1990.14	48.1375
1996.21	46.2151
2000	44.9752