Folder: Graphs/Example Data/Raman/CNT - TIM/Raytheon/Al foil/2010/07-07-10

Note: README.md
# Graphs
A macOS app that manages the organization of data files and graphs them.

Licensed under the MIT licensing terms: https://opensource.org/licenses/MIT

Hildreth wrote the precursor to Graphs, then called GraphBase, during his Ph.D. to help manage the data he was collecting as part of his research on Metal-assisted Chemical Etching of Silicon.  He was becoming overwhelmed by the hundreds of data files he was collecting every week and was inspired by the Papers and iTunes applications on OS X (now macOS) to create an application that managed data.  GraphBase provided an easy template to create a parser, a simple UI to organize data into hiarchical folders, and leveraged the DataGraph framework (http://www.visualdatatools.com/DataGraph/Framework/) for graphing.  DataGraph (http://www.visualdatatools.com/DataGraph/) is an amazing 2D graphing application and you will need to purchase a DataGraph license from Visual Data Tools in order to use Graphs.

Graphs is a rewrite of GraphBase in Swift written by Connor and then re-written again by Hildreth that has been open sourced for use by all.  Please not that you will need a DataGraph license to create the graph templates used by the DataGraph framework underlying Graphs.  Hildreth plans to continue evolving this application.  The next plan improvements are: multithreading for import and parsing using the new Results type in Swift; and begin switching over to SwiftUI for the UI.  Long term, we hope to add support for data analysis and extraction.

# Overview
Graphs is a data management tool that allows you to store your raw data files in a text formate (CSV, tab delimited, etc.) and then have those files parsed and graphed when selected.  Graphs uses the DataGraph fromework 

To use Graphs, first you create an example graph, what we call a Graph Template, in DataGraph.  Format the graph the way you want it to look and make sure that the Data Columns are in the same order as the columns in your data.  Next, you  add your "Graph Template" to Graphs using either the Graph Template Inspector on the right side of Graphs using using the "+" sign on the bottom left of the application.  You can also drag-and-drop the file onto a folder in the Source List.  Once you add a Graph Template, you can assign it to be the default Graph Template for a folder and any sub-folders using the Folder Inspector.

The second step is to make a Paser using the Parser Inspector.  It might be helpful to have an example file already in Graphs (see Step 3) because you can use the Text Inspector to see what lines your Experimental Details, Header, and Data start at.  Add a Parse Template using the + sign in the Parse Inspector's table and give the Parse Template a name.  If your data has experimental details at the top, then select the checkbox and set the starting and ending lines for this information.  If your data has a Header, select the Header checkbox, give it starting and ending line numbers, and then select the type of s

File: Cu Batch 1 - bottom.txt
300	27.0911
306.115	22.5344
312.23	29.9402
318.345	28.2292
324.46	29.4763
330.576	27.1214
336.691	21.998
342.806	31.6991
348.921	22.5831
355.036	26.3687
361.151	16.6423
367.266	18.5612
373.381	24.7873
379.496	15.4724
385.612	15.8324
391.727	19.9672
397.842	19.1266
403.957	23.7291
410.072	18.7524
416.187	14.2417
422.302	11.0599
428.417	15.3527
434.532	5.73131
440.647	14.845
446.763	13.6982
452.878	6.90733
458.993	13.2771
465.108	7.30366
471.223	6.59212
477.338	4.1665
483.453	2.84931
489.568	-0.0422564
495.683	2.31228
501.799	0.0603241
507.914	0.286875
514.029	6.23364
520.144	0.0728179
526.259	-2.23672
532.374	-6.07532
538.489	1.64091
544.604	-1.25723
550.719	-9.58092
556.835	-6.74356
562.95	-5.34789
569.065	-0.400925
575.18	-1.64195
581.295	-2.94064
587.41	-4.9639
593.525	-9.3985
599.64	-7.56893
605.755	-1.68372
611.87	-2.48329
617.986	-0.586054
624.101	-2.35078
630.216	-6.5841
636.331	-1.63444
642.446	-0.699567
648.561	4.54875
654.676	-6.13697
660.791	-0.817457
666.906	3.51344
673.022	0.850153
679.137	4.05215
685.252	-3.10545
691.367	-1.85059
697.482	1.59822
703.597	1.88425
709.712	6.43771
715.827	0.824493
721.942	8.09362
728.058	11.7144
734.173	8.07493
740.288	6.47367
746.403	11.93
752.518	2.91786
758.633	11.8749
764.748	14.8095
770.863	7.85136
776.978	13.3664
783.094	17.072
789.209	9.55326
795.324	18.4609
801.439	14.9575
807.554	22.9669
813.669	21.8246
819.784	21.9081
825.899	20.3662
832.014	18.6042
838.13	28.1508
844.245	18.1026
850.36	20.2896
856.475	28.059
862.59	22.4957
868.705	15.8991
874.82	16.1228
880.935	17.3317
887.05	16.1588
893.165	11.9903
899.281	3.51607
905.396	8.96405
911.511	1.57552
917.626	9.07493
923.741	10.9042
929.856	11.3899
935.971	12.0233
942.086	4.96742
948.201	5.00819
954.317	7.18032
960.432	6.15417
966.547	10.3966
972.662	5.30494
978.777	6.45512
984.892	7.95333
991.007	6.8127
997.122	5.71864
1003.24	0.330311
1009.35	2.95243
1015.47	1.69152
1021.58	0.764288
1027.7	6.85379
1033.81	3.89345
1039.93	12.315
1046.04	9.61832
1052.16	15.6008
1058.27	12.743
1064.39	18.9317
1070.5	12.216
1076.62	11.4897
1082.73	12.931
1088.85	13.4964
1094.96	9.92203
1101.08	9.04461
1107.19	6.87134
1113.31	13.4911
1119.42	1.61782
1125.54	4.21744
1131.65	-7.35134
1137.77	-4.33904
1143.88	-7.56005
1150	-2.05683
1156.12	3.19474
1162.23	12.3436
1168.35	-4.68409
1174.46	13.0348
1180.58	5.43758
1186.69	3.34208
1192.81	1.84798
1198.92	-1.80136
1205.04	0.0427919
1211.15	15.1423
1217.27	14.5036
1223.38	14.237
1229.5	24.7036
1235.61	16.3751
1241.73	27.3404
1247.84	44.185
1253.96	43.1878
1260.07	54.9484
1266.19	55.3509
1272.3	77.4586
1278.42	96.3846
1284.53	112.988
1290.65	129.323
1296.76	139.365
1302.88	178.004
1308.99	205.874
1315.11	245.586
1321.22	296.029
1327.34	312.559
1333.45	359.852
1339.57	376.462
1345.68	386.785
1351.8	371.568
1357.91	355.154
1364.03	307.368
1370.14	268.044
1376.26	221.782
1382.37	192.902
1388.49	158.027
1394.6	121.88
1400.72	124.11
1406.83	93.8598
1412.95	72.3914
1419.06	64.1924
1425.18	49.7916
1431.29	30.1953
1437.41	20.6238
1443.53	20.9256
1449.64	4.94619
1455.76	7.99526
1461.87	7.48176
1467.99	-8.57
1474.1	14.6481
1480.22	-1.38969
1486.33	-0.989359
1492.45	11.7698
1498.56	3.26288
1504.68	6.58193
1510.79	17.3052
1516.91	17.9154
1523.02	28.8928
1529.14	39.8625
1535.25	57.534
1541.37	87.2759
1547.48	109.878
1553.6	142.089
1559.71	185.255
1565.83	223.022
1571.94	264.063
1578.06	299.851
1584.17	344.248
1590.29	374.095
1596.4	391.91
1602.52	374.145
1608.63	364.885
1614.75	333.54
1620.86	295.109
1626.98	246.554
1633.09	195.347
1639.21	147.046
1645.32	116.457
1651.44	78.3949
1657.55	48.9253
1663.67	30.7257
1669.78	16.6008
1675.9	7.39816
1682.01	7.30242
1688.13	3.94833
1694.24	-5.32453
1700.36	-0.420779
1706.47	0.814574
1712.59	-5.32708
1718.71	-3.14075
1724.82	-4.38874
1730.94	-5.58704
1737.05	0.972522
1743.17	-5.7122
1749.28	-1.35897
1755.4	-0.189384
1761.51	2.88437
1767.63	10.7625
1773.74	-0.458528
1779.86	7.38361
1785.97	-1.50952
1792.09	-0.360956
1798.2	1.53127
1804.32	0.016032
1810.43	4.42311
1816.55	3.65303
1822.66	-1.71033
1828.78	3.71615
1834.89	6.59218
1841.01	5.65965
1847.12	3.41201
1853.24	2.68245
1859.35	-0.300463
1865.47	3.68669
1871.58	9.85152
1877.7	5.33139
1883.81	2.61906
1889.93	6.63942
1896.04	10.3684
1902.16	6.88656
1908.27	8.45428
1914.39	9.86532
1920.5	6.33841
1926.62	10.6335
1932.73	13.0685
1938.85	7.42819
1944.96	12.0659
1951.08	17.9371
1957.19	12.4348
1963.31	13.9275
1969.42	13.9779
1975.54	14.2749
1981.65	17.264
1987.77	20.2642
1993.88	20.3392
2000	18.7495

File: Cu Batch 1 - top.txt
300	5.84006
306.115	10.894
312.23	8.27274
318.345	8.95426
324.46	7.10142
330.576	2.56543
336.691	4.78689
342.806	2.262
348.921	5.69388
355.036	5.08587
361.151	7.6959
367.266	5.66754
373.381	5.06057
379.496	11.965
385.612	7.66894
391.727	1.74894
397.842	5.22588
403.957	12.1961
410.072	5.85862
416.187	10.442
422.302	9.57245
428.417	11.313
434.532	10.3112
440.647	10.9907
446.763	12.3691
452.878	11.2038
458.993	6.95724
465.108	7.79844
471.223	8.95529
477.338	9.18034
483.453	9.92335
489.568	10.4121
495.683	5.70994
501.799	3.80919
507.914	9.20269
514.029	8.92569
520.144	8.78302
526.259	5.55361
532.374	7.88927
538.489	6.02092
544.604	9.99776
550.719	5.13719
556.835	5.95788
562.95	1.85934
569.065	0
575.18	4.20104
581.295	5.81701
587.41	10.2992
593.525	7.15206
599.64	5.03246
605.755	-0.862802
611.87	1.01951
617.986	4.95716
624.101	4.53552
630.216	9.68904
636.331	6.77952
642.446	11.0177
648.561	11.2605
654.676	8.42113
660.791	5.1737
666.906	10.0277
673.022	13.4578
679.137	12.2551
685.252	11.154
691.367	11.5952
697.482	12.1463
703.597	3.37946
709.712	4.82524
715.827	9.40648
721.942	9.82855
728.058	8.74516
734.173	12.4441
740.288	14.9586
746.403	12.0592
752.518	9.87088
758.633	14.9929
764.748	7.75946
770.863	10.6429
776.978	12.4615
783.094	15.4413
789.209	15.4458
795.324	17.9907
801.439	20.6053
807.554	16.4207
813.669	22.4309
819.784	19.9165
825.899	15.394
832.014	19.6582
838.13	20.0688
844.245	15.2548
850.36	17.1194
856.475	21.0325
862.59	17.3976
868.705	9.71638
874.82	14.013
880.935	9.54484
887.05	6.93062
893.165	9.23515
899.281	4.17389
905.396	0.537419
911.511	1.00209
917.626	0.878969
923.741	-0.646294
929.856	2.51863
935.971	-1.80484
942.086	1.34288
948.201	0.724764
954.317	-2.6511
960.432	-1.69236
966.547	-0.974599
972.662	4.52468
978.777	3.64921
984.892	-0.0463761
991.007	-0.649953
997.122	-1.14763
1003.24	2.38256
1009.35	6.81322
1015.47	2.48672
1021.58	10.2441
1027.7	12.7508
1033.81	11.6154
1039.93	10.6278
1046.04	13.746
1052.16	18.3067
1058.27	18.1775
1064.39	11.3575
1070.5	14.7269
1076.62	15.3081
1082.73	14.1013
1088.85	15.89
1094.96	16.128
1101.08	15.9996
1107.19	16.0663
1113.31	13.1414
1119.42	16.4478
1125.54	5.06499
1131.65	4.89886
1137.77	1.99289
1143.88	3.35785
1150	16.186
1156.12	20.116
1162.23	20.2716
1168.35	23.2572
1174.46	30.1042
1180.58	23.1943
1186.69	31.6532
1192.81	33.3426
1198.92	27.1771
1205.04	39.5949
1211.15	45.2918
1217.27	53.2674
1223.38	54.502
1229.5	62.1951
1235.61	61.6012
1241.73	72.1239
1247.84	83.6928
1253.96	87.8505
1260.07	100.824
1266.19	113.538
1272.3	119.913
1278.42	136.589
1284.53	156.444
1290.65	185.751
1296.76	207.919
1302.88	230.11
1308.99	279.242
1315.11	319.474
1321.22	365.444
1327.34	413.366
1333.45	444.949
1339.57	504.049
1345.68	532.739
1351.8	531.283
1357.91	517.281
1364.03	471.707
1370.14	417.117
1376.26	385.772
1382.37	331.343
1388.49	293.817
1394.6	271.289
1400.72	232.212
1406.83	213.095
1412.95	188.477
1419.06	188.541
1425.18	169.379
1431.29	169.386
1437.41	154.924
1443.53	150.616
1449.64	156.902
1455.76	137.827
1461.87	129.006
1467.99	128.62
1474.1	133.693
1480.22	134.304
1486.33	138.082
1492.45	133.884
1498.56	133.563
1504.68	153.799
1510.79	154.484
1516.91	147.281
1523.02	162.855
1529.14	163.44
1535.25	164.434
1541.37	181.451
1547.48	201.157
1553.6	236.54
1559.71	264.552
1565.83	295.384
1571.94	325.386
1578.06	369.636
1584.17	411.626
1590.29	446.823
1596.4	466.275
1602.52	463.676
1608.63	438.002
1614.75	413.783
1620.86	386.22
1626.98	328.341
1633.09	272.088
1639.21	219.947
1645.32	170.292
1651.44	126.295
1657.55	93.6275
1663.67	74.6592
1669.78	51.7823
1675.9	36.5958
1682.01	25.9467
1688.13	19.913
1694.24	9.80938
1700.36	5.19222
1706.47	7.75336
1712.59	4.34023
1718.71	4.24326
1724.82	3.95528
1730.94	0.580071
1737.05	3.25103
1743.17	-3.34293
1749.28	-4.17471
1755.4	-0.904258
1761.51	-4.87934
1767.63	-2.46601
1773.74	-6.35288
1779.86	0.677551
1785.97	-5.06204
1792.09	-0.401368
1798.2	-3.45965
1804.32	-6.14922
1810.43	-3.76921
1816.55	-5.50143
1822.66	-5.06332
1828.78	0.983775
1834.89	-6.5681
1841.01	-3.79425
1847.12	-7.54391
1853.24	-2.9935
1859.35	-2.68021
1865.47	-3.27612
1871.58	-2.68526
1877.7	-1.88975
1883.81	-1.13122
1889.93	-0.707764
1896.04	4.50561
1902.16	2.73189
1908.27	-1.3566
1914.39	1.86542
1920.5	-2.74286
1926.62	3.59915
1932.73	-4.44614
1938.85	8.53248
1944.96	-0.617094
1951.08	1.87159
1957.19	0.877675
1963.31	-0.216536
1969.42	3.02497
1975.54	4.25129
1981.65	0
1987.77	5.37807
1993.88	6.51092
2000	8.85123