Folder: Graphs/Example Data/Raman/CNT - TIM/Raytheon/Al foil/2010/08-11-10

Note: README.md
# Graphs
A macOS app that manages the organization of data files and graphs them.

Licensed under the MIT licensing terms: https://opensource.org/licenses/MIT

Hildreth wrote the precursor to Graphs, then called GraphBase, during his Ph.D. to help manage the data he was collecting as part of his research on Metal-assisted Chemical Etching of Silicon.  He was becoming overwhelmed by the hundreds of data files he was collecting every week and was inspired by the Papers and iTunes applications on OS X (now macOS) to create an application that managed data.  GraphBase provided an easy template to create a parser, a simple UI to organize data into hiarchical folders, and leveraged the DataGraph framework (http://www.visualdatatools.com/DataGraph/Framework/) for graphing.  DataGraph (http://www.visualdatatools.com/DataGraph/) is an amazing 2D graphing application and you will need to purchase a DataGraph license from Visual Data Tools in order to use Graphs.

Graphs is a rewrite of GraphBase in Swift written by Connor and then re-written again by Hildreth that has been open sourced for use by all.  Please not that you will need a DataGraph license to create the graph templates used by the DataGraph framework underlying Graphs.  Hildreth plans to continue evolving this application.  The next plan improvements are: multithreading for import and parsing using the new Results type in Swift; and begin switching over to SwiftUI for the UI.  Long term, we hope to add support for data analysis and extraction.

# Overview
Graphs is a data management tool that allows you to store your raw data files in a text formate (CSV, tab delimited, etc.) and then have those files parsed and graphed when selected.  Graphs uses the DataGraph fromework 

To use Graphs, first you create an example graph, what we call a Graph Template, in DataGraph.  Format the graph the way you want it to look and make sure that the Data Columns are in the same order as the columns in your data.  Next, you  add your "Graph Template" to Graphs using either the Graph Template Inspector on the right side of Graphs using using the "+" sign on the bottom left of the application.  You can also drag-and-drop the file onto a folder in the Source List.  Once you add a Graph Template, you can assign it to be the default Graph Template for a folder and any sub-folders using the Folder Inspector.

The second step is to make a Paser using the Parser Inspector.  It might be helpful to have an example file already in Graphs (see Step 3) because you can use the Text Inspector to see what lines your Experimental Details, Header, and Data start at.  Add a Parse Template using the + sign in the Parse Inspector's table and give the Parse Template a name.  If your data has experimental details at the top, then select the checkbox and set the starting and ending lines for this information.  If your data has a Header, select the Header checkbox, give it starting and ending line numbers, and then select the type of s

File: Batch13_top2.txt
1000	562.938
1008.49	607.159
1016.97	612.817
1025.46	575.105
1033.95	586.858
1042.44	604.807
1050.92	621.553
1059.41	650.9
1067.9	624.98
1076.39	605.237
1084.87	629.26
1093.36	633.655
1101.85	648.377
1110.34	647.856
1118.82	644.234
1127.31	663.859
1135.8	707.171
1144.29	676.299
1152.77	701.378
1161.26	711.361
1169.75	697.703
1178.24	739.261
1186.72	702.371
1195.21	731
1203.7	759.7
1212.19	773.14
1220.67	777.419
1229.16	783.779
1237.65	798.94
1246.14	810.797
1254.62	768.296
1263.11	881.604
1271.6	905.32
1280.09	949.522
1288.57	967.099
1297.06	1031.29
1305.55	1080.58
1314.04	1118.46
1322.52	1257.72
1331.01	1354.69
1339.5	1360.93
1347.99	1359.26
1356.47	1292.55
1364.96	1217.32
1373.45	1206.02
1381.94	1081.32
1390.42	1048.7
1398.91	977.42
1407.4	962.293
1415.89	980.372
1424.37	921.394
1432.86	902.213
1441.35	894.54
1449.84	934.232
1458.32	898.324
1466.81	876.13
1475.3	888.6
1483.79	917.064
1492.27	880.011
1500.76	890.099
1509.25	858.699
1517.74	928.202
1526.22	928.594
1534.71	937.367
1543.2	1003.45
1551.69	1044.41
1560.17	1109.07
1568.66	1196.09
1577.15	1229.96
1585.64	1298.13
1594.12	1263.26
1602.61	1225.37
1611.1	1205.16
1619.59	1082.26
1628.07	998.482
1636.56	909.295
1645.05	795.291
1653.54	744.898
1662.02	698.65
1670.51	695.315
1679	631.148
1687.49	612.562
1695.97	643.565
1704.46	601.087
1712.95	621.558
1721.44	608.331
1729.92	620.484
1738.41	604.405
1746.9	612.633
1755.39	600.677
1763.87	597.177
1772.36	590.414
1780.85	594.176
1789.34	578.444
1797.82	608.344
1806.31	609.444
1814.8	588.24
1823.29	617.369
1831.77	622.996
1840.26	580.834
1848.75	598.701
1857.24	646.021
1865.72	579.506
1874.21	597.483
1882.7	610.634
1891.19	596.753
1899.67	587.721
1908.16	564.72
1916.65	592.131
1925.14	587.393
1933.62	564.269
1942.11	610.787
1950.6	604.426
1959.09	578.287
1967.57	582.703
1976.06	557.783
1984.55	578.478
1993.04	542.514
2001.52	590.885
2010.01	584.115
2018.5	609.328
2026.99	566.515
2035.47	575.206
2043.96	572.589
2052.45	575.657
2060.94	569.694
2069.42	561.227
2077.91	579.71
2086.4	554.217
2094.89	561.178
2103.37	573.977
2111.86	580.267
2120.35	549.765
2128.84	553.59
2137.32	577.328
2145.81	572.427
2154.3	568.075
2162.79	600.695
2171.27	581.893
2179.76	589.577
2188.25	600.467
2196.74	554.86
2205.22	555.489
2213.71	562.334
2222.2	578.698
2230.69	570.484
2239.17	590.778
2247.66	533.294
2256.15	543.696
2264.64	550.653
2273.12	541.78
2281.61	554.57
2290.1	573.438
2298.59	582.718
2307.07	581.68
2315.56	555.661
2324.05	593.276
2332.54	612.773
2341.02	565.659
2349.51	563.73
2358	563.782
2366.49	565.459
2374.97	578.58
2383.46	579.185
2391.95	558.523
2400.44	555.831
2408.92	554.721
2417.41	585.42
2425.9	575.367
2434.39	572.032
2442.87	607.106
2451.36	585.558
2459.85	546.565
2468.34	569.45
2476.82	582.654
2485.31	579.141
2493.8	609.785
2502.29	591.724
2510.77	577.472
2519.26	574.875
2527.75	600.517
2536.24	594.123
2544.72	613.467
2553.21	618.636
2561.7	628.578
2570.19	594.492
2578.67	612.654
2587.16	589.2
2595.65	632.985
2604.14	614.672
2612.62	611.861
2621.11	677.173
2629.6	626.345
2638.08	657.322
2646.57	643.687
2655.06	656.715
2663.55	679
2672.03	666.284
2680.52	674.289
2689.01	684.246
2697.5	639.228
2705.98	657.362
2714.47	638.641
2722.96	610.319
2731.45	641.861
2739.93	607.056
2748.42	632.702
2756.91	621.673
2765.4	611.012
2773.88	574.134
2782.37	543.659
2790.86	605.937
2799.35	590.322
2807.83	589.687
2816.32	556.88
2824.81	616.989
2833.3	543.525
2841.78	601.99
2850.27	571.727
2858.76	597.074
2867.25	573.91
2875.73	574.067
2884.22	585.805
2892.71	582.319
2901.2	557.674
2909.68	582.48
2918.17	614.122
2926.66	584.742
2935.15	553.149
2943.63	563.988
2952.12	547.962
2960.61	584.159
2969.1	565.552
2977.58	529.141
2986.07	524.708
2994.56	561.457
3003.05	527.579
3011.53	503.209
3020.02	516.953
3028.51	537.309
3037	530.331
3045.48	495.17
3053.97	507.429
3062.46	546.626
3070.95	525.707
3079.43	499.564
3087.92	539.385
3096.41	516.159
3104.9	473.607
3113.38	516.519
3121.87	486.355
3130.36	496.761
3138.85	522.291
3147.33	497.681
3155.82	468.924
3164.31	493.193
3172.8	474.501
3181.28	487.602
3189.77	483.789
3198.26	487.367
3206.75	492.071
3215.23	487.485
3223.72	498.013
3232.21	470.431
3240.7	475.431
3249.18	459.453
3257.67	444.761
3266.16	437.84
3274.65	462.03
3283.13	443.166
3291.62	459.277
3300.11	415.721
3308.6	440.922
3317.08	451.564
3325.57	466.768
3334.06	423.708
3342.55	436.744
3351.03	418.581
3359.52	471.253
3368.01	416.792
3376.5	445.946
3384.98	416.644
3393.47	436.246
3400	396.627

File: batch 13 _bottom2.txt
1000	569.958
1008.49	530.928
1016.97	554.324
1025.46	557.895
1033.95	556.287
1042.44	600.468
1050.92	597.323
1059.41	622.971
1067.9	569.735
1076.39	587.097
1084.87	597.227
1093.36	613.026
1101.85	599.857
1110.34	642.928
1118.82	585.14
1127.31	617.263
1135.8	642.849
1144.29	637.585
1152.77	662.403
1161.26	646.131
1169.75	659.891
1178.24	668.739
1186.72	650.171
1195.21	690.67
1203.7	711.3
1212.19	653.768
1220.67	693.309
1229.16	708.82
1237.65	706.1
1246.14	745.483
1254.62	768.733
1263.11	789.604
1271.6	831.201
1280.09	846.195
1288.57	828.979
1297.06	908.52
1305.55	949.412
1314.04	1038.82
1322.52	1118.66
1331.01	1235.7
1339.5	1254.07
1347.99	1332.37
1356.47	1309.46
1364.96	1204.89
1373.45	1132.69
1381.94	1028.86
1390.42	978.161
1398.91	908.227
1407.4	916.05
1415.89	894.693
1424.37	826.988
1432.86	855.481
1441.35	823.833
1449.84	824.088
1458.32	832.007
1466.81	819.246
1475.3	855.16
1483.79	816.952
1492.27	798.927
1500.76	801.109
1509.25	811.329
1517.74	852.946
1526.22	858.627
1534.71	842.209
1543.2	882.775
1551.69	954.59
1560.17	993.392
1568.66	1025.34
1577.15	1148.32
1585.64	1249.78
1594.12	1186.92
1602.61	1246.7
1611.1	1167.57
1619.59	1099.26
1628.07	1018.91
1636.56	929.545
1645.05	823.375
1653.54	725.892
1662.02	664.379
1670.51	633.262
1679	611.724
1687.49	626.73
1695.97	586.441
1704.46	585.946
1712.95	594.201
1721.44	585.907
1729.92	593.672
1738.41	578.6
1746.9	557.509
1755.39	578.461
1763.87	553.379
1772.36	588.594
1780.85	592.527
1789.34	596.732
1797.82	580.003
1806.31	567.795
1814.8	594.762
1823.29	569.154
1831.77	567.244
1840.26	561.01
1848.75	579.766
1857.24	572.449
1865.72	586.033
1874.21	566.307
1882.7	576.014
1891.19	578.486
1899.67	586.632
1908.16	548.935
1916.65	561.629
1925.14	560.95
1933.62	540.594
1942.11	542.754
1950.6	552.253
1959.09	556.227
1967.57	548.058
1976.06	562.812
1984.55	504.696
1993.04	574.029
2001.52	578.18
2010.01	560.37
2018.5	596.425
2026.99	591.737
2035.47	578.256
2043.96	574.223
2052.45	570.033
2060.94	553.826
2069.42	566.061
2077.91	557.223
2086.4	560.563
2094.89	577.279
2103.37	576.505
2111.86	566.153
2120.35	563.007
2128.84	513.222
2137.32	549.811
2145.81	554.903
2154.3	533.327
2162.79	540.642
2171.27	562.722
2179.76	572.523
2188.25	542.686
2196.74	552.109
2205.22	563.828
2213.71	536.672
2222.2	549.757
2230.69	565.788
2239.17	572.125
2247.66	545.262
2256.15	541.845
2264.64	546.896
2273.12	553.791
2281.61	547.049
2290.1	573.397
2298.59	555.419
2307.07	563.741
2315.56	553.648
2324.05	555.948
2332.54	617.67
2341.02	565.998
2349.51	554.362
2358	549.536
2366.49	537.16
2374.97	567.944
2383.46	526.826
2391.95	542.517
2400.44	557.104
2408.92	589.025
2417.41	561.167
2425.9	555.569
2434.39	568.669
2442.87	608.736
2451.36	573.395
2459.85	556.493
2468.34	541.06
2476.82	552.89
2485.31	576.874
2493.8	553.391
2502.29	598.651
2510.77	553.153
2519.26	583.452
2527.75	590.421
2536.24	565.198
2544.72	561.464
2553.21	601.113
2561.7	556.202
2570.19	566.565
2578.67	593.809
2587.16	585.218
2595.65	616.75
2604.14	605.389
2612.62	595.086
2621.11	601.689
2629.6	613.103
2638.08	639.673
2646.57	637.815
2655.06	685.924
2663.55	696.746
2672.03	673.41
2680.52	690.543
2689.01	729.776
2697.5	671.317
2705.98	659.517
2714.47	671.928
2722.96	650.872
2731.45	623.145
2739.93	618.249
2748.42	604.507
2756.91	611.07
2765.4	612.12
2773.88	602.69
2782.37	586.639
2790.86	581.522
2799.35	558.945
2807.83	539.07
2816.32	556.012
2824.81	554.248
2833.3	554.078
2841.78	551.395
2850.27	561.693
2858.76	557.023
2867.25	563.822
2875.73	567.656
2884.22	580.931
2892.71	566.929
2901.2	598.942
2909.68	568.191
2918.17	581.064
2926.66	586.81
2935.15	561.009
2943.63	598.297
2952.12	573.21
2960.61	578.799
2969.1	550.703
2977.58	525.512
2986.07	522.96
2994.56	521.563
3003.05	556.169
3011.53	524.051
3020.02	523.5
3028.51	522.928
3037	498.143
3045.48	514.474
3053.97	514.685
3062.46	531.847
3070.95	514.24
3079.43	509.036
3087.92	468.29
3096.41	470.147
3104.9	480.304
3113.38	528.712
3121.87	481.675
3130.36	465.295
3138.85	465.99
3147.33	491.104
3155.82	438.77
3164.31	458.086
3172.8	476.047
3181.28	487.388
3189.77	482.791
3198.26	491.257
3206.75	471.653
3215.23	486.47
3223.72	477.017
3232.21	491.08
3240.7	457.467
3249.18	478.471
3257.67	455.624
3266.16	476.917
3274.65	464.597
3283.13	415.465
3291.62	455.534
3300.11	453.576
3308.6	436.419
3317.08	415.762
3325.57	432.247
3334.06	426.386
3342.55	418.214
3351.03	439.394
3359.52	423.823
3368.01	409.085
3376.5	395.363
3384.98	438.358
3393.47	436.16
3400	433.672

File: batch 13 _bottom.txt
1000	552.502
1008.49	578.095
1016.97	580.042
1025.46	552.225
1033.95	607.569
1042.44	576.913
1050.92	609.553
1059.41	571.401
1067.9	575.057
1076.39	601.731
1084.87	609.52
1093.36	600.694
1101.85	639.72
1110.34	612.732
1118.82	616.056
1127.31	645.141
1135.8	646.543
1144.29	648.325
1152.77	673.678
1161.26	662.213
1169.75	676.094
1178.24	678.605
1186.72	669.874
1195.21	686.147
1203.7	658.441
1212.19	695.882
1220.67	691.461
1229.16	736.615
1237.65	735.061
1246.14	730.28
1254.62	798.217
1263.11	785.586
1271.6	792.035
1280.09	831.355
1288.57	874.546
1297.06	913.105
1305.55	946.602
1314.04	1027.82
1322.52	1095.36
1331.01	1173.93
1339.5	1221.19
1347.99	1204.28
1356.47	1155.46
1364.96	1126.27
1373.45	1091.12
1381.94	1006.68
1390.42	956.444
1398.91	885.718
1407.4	847.643
1415.89	852.84
1424.37	867.472
1432.86	844.055
1441.35	834.08
1449.84	802.53
1458.32	789.481
1466.81	878.696
1475.3	819.28
1483.79	840.224
1492.27	799.794
1500.76	798.236
1509.25	865.923
1517.74	864.132
1526.22	869.974
1534.71	860
1543.2	891.313
1551.69	970.935
1560.17	1000.34
1568.66	1023.2
1577.15	1135.45
1585.64	1136.76
1594.12	1160.24
1602.61	1108.64
1611.1	1079.29
1619.59	1002.86
1628.07	916.252
1636.56	864.025
1645.05	788.404
1653.54	722.547
1662.02	705.865
1670.51	661.348
1679	612.438
1687.49	621.946
1695.97	602.025
1704.46	597.375
1712.95	584.845
1721.44	588.381
1729.92	601.16
1738.41	564.06
1746.9	575.521
1755.39	596.943
1763.87	570.462
1772.36	593.986
1780.85	600.862
1789.34	552.677
1797.82	597.429
1806.31	614.725
1814.8	591.352
1823.29	552.098
1831.77	599.322
1840.26	562.866
1848.75	575.434
1857.24	574.364
1865.72	618.847
1874.21	621.051
1882.7	569.245
1891.19	572.191
1899.67	582.266
1908.16	598.049
1916.65	580.376
1925.14	563.563
1933.62	542.752
1942.11	576.734
1950.6	565.49
1959.09	549.803
1967.57	564.227
1976.06	569.667
1984.55	575.343
1993.04	583.42
2001.52	577.97
2010.01	557.334
2018.5	567.607
2026.99	559.392
2035.47	559.616
2043.96	593.114
2052.45	552.238
2060.94	559.312
2069.42	581.418
2077.91	563.771
2086.4	566.333
2094.89	572.868
2103.37	551.999
2111.86	541.026
2120.35	567.618
2128.84	542.117
2137.32	579.232
2145.81	551.06
2154.3	549.581
2162.79	556.431
2171.27	581.347
2179.76	557.633
2188.25	540.276
2196.74	559.575
2205.22	556.172
2213.71	526.966
2222.2	560.026
2230.69	526.061
2239.17	544.644
2247.66	509.358
2256.15	540.18
2264.64	581.378
2273.12	571.394
2281.61	568.917
2290.1	556.047
2298.59	570.192
2307.07	522.499
2315.56	556.708
2324.05	566.307
2332.54	571.256
2341.02	550.002
2349.51	533.858
2358	537.034
2366.49	525.961
2374.97	566.401
2383.46	537.08
2391.95	563.01
2400.44	568.303
2408.92	600.456
2417.41	577.055
2425.9	566.841
2434.39	569.449
2442.87	575.413
2451.36	548.158
2459.85	564.48
2468.34	553.365
2476.82	559.048
2485.31	560.473
2493.8	550.857
2502.29	531.591
2510.77	528.204
2519.26	565.658
2527.75	546.627
2536.24	574.61
2544.72	569.899
2553.21	566.947
2561.7	587.462
2570.19	567.692
2578.67	583.393
2587.16	553.975
2595.65	573.206
2604.14	583.604
2612.62	587.518
2621.11	599.008
2629.6	582.211
2638.08	621.51
2646.57	622.435
2655.06	625.839
2663.55	640.389
2672.03	647.103
2680.52	650.952
2689.01	622.675
2697.5	614.286
2705.98	622.997
2714.47	619.211
2722.96	622.211
2731.45	580.937
2739.93	588.228
2748.42	599.687
2756.91	576.334
2765.4	558.225
2773.88	561.579
2782.37	557.107
2790.86	562.219
2799.35	551.247
2807.83	540.599
2816.32	546.874
2824.81	539.377
2833.3	547.35
2841.78	507.997
2850.27	557.493
2858.76	550.879
2867.25	551.639
2875.73	570.279
2884.22	558.798
2892.71	553.913
2901.2	582.035
2909.68	564.411
2918.17	570.576
2926.66	587.968
2935.15	564.498
2943.63	547.809
2952.12	581.115
2960.61	552.884
2969.1	544.955
2977.58	525.541
2986.07	489.393
2994.56	514.049
3003.05	531.889
3011.53	526.57
3020.02	478.096
3028.51	502.53
3037	477.109
3045.48	491.2
3053.97	489.652
3062.46	498.66
3070.95	519.723
3079.43	520.652
3087.92	481.86
3096.41	503.029
3104.9	472.278
3113.38	489.51
3121.87	488.951
3130.36	483.823
3138.85	461.496
3147.33	419.064
3155.82	465.915
3164.31	454.109
3172.8	459.187
3181.28	466.861
3189.77	485.274
3198.26	478.171
3206.75	447.185
3215.23	447.309
3223.72	444.086
3232.21	461.359
3240.7	441.61
3249.18	438.789
3257.67	439.883
3266.16	445.647
3274.65	438.093
3283.13	457.917
3291.62	416.516
3300.11	451.017
3308.6	442.091
3317.08	412.897
3325.57	436.656
3334.06	438.835
3342.55	410.837
3351.03	404.165
3359.52	428.385
3368.01	407.176
3376.5	424.403
3384.98	406.355
3393.47	440.173
3400	398.824

File: batch 13 _top.txt
1000	614.56
1008.49	604.46
1016.97	617.211
1025.46	639.189
1033.95	643.285
1042.44	628.087
1050.92	656.806
1059.41	658.778
1067.9	645.755
1076.39	670.065
1084.87	678.441
1093.36	638
1101.85	661.253
1110.34	673.33
1118.82	683.84
1127.31	671.239
1135.8	725.925
1144.29	677.898
1152.77	710.057
1161.26	714.016
1169.75	728.996
1178.24	705.204
1186.72	731.532
1195.21	729.587
1203.7	747.169
1212.19	788.922
1220.67	791.735
1229.16	766.871
1237.65	805.634
1246.14	837.295
1254.62	866.503
1263.11	925.678
1271.6	939.784
1280.09	981.993
1288.57	987.486
1297.06	1070.22
1305.55	1150.61
1314.04	1255.71
1322.52	1328.7
1331.01	1454.23
1339.5	1513.81
1347.99	1460.45
1356.47	1398.36
1364.96	1308.01
1373.45	1215.98
1381.94	1135.64
1390.42	1064.16
1398.91	1065.47
1407.4	999.892
1415.89	948.025
1424.37	941.613
1432.86	903.983
1441.35	925.08
1449.84	917.616
1458.32	897.737
1466.81	919.884
1475.3	882.32
1483.79	925.242
1492.27	909.618
1500.76	923.732
1509.25	973.357
1517.74	919.705
1526.22	952.931
1534.71	992.052
1543.2	1027.5
1551.69	1095.41
1560.17	1157.42
1568.66	1242.13
1577.15	1281.74
1585.64	1339.02
1594.12	1364.25
1602.61	1300.35
1611.1	1257.01
1619.59	1065.16
1628.07	973.793
1636.56	883.836
1645.05	787.908
1653.54	753.346
1662.02	722.419
1670.51	677.652
1679	660.276
1687.49	661.37
1695.97	635.197
1704.46	653.837
1712.95	590.731
1721.44	603.342
1729.92	620.978
1738.41	631.584
1746.9	580.472
1755.39	604.54
1763.87	590.065
1772.36	582.122
1780.85	591.278
1789.34	610.455
1797.82	610.769
1806.31	625.382
1814.8	606.444
1823.29	594.058
1831.77	610.394
1840.26	584.929
1848.75	604.496
1857.24	586.303
1865.72	564.043
1874.21	616.892
1882.7	598.396
1891.19	618.888
1899.67	610.588
1908.16	553.585
1916.65	610.584
1925.14	568.842
1933.62	625.21
1942.11	589.199
1950.6	581.076
1959.09	594.52
1967.57	590.625
1976.06	568.709
1984.55	560.847
1993.04	588.521
2001.52	612.903
2010.01	575.89
2018.5	600.18
2026.99	615.685
2035.47	562.97
2043.96	575.842
2052.45	600.109
2060.94	576.206
2069.42	526.91
2077.91	601.387
2086.4	611.41
2094.89	609.223
2103.37	570.685
2111.86	572.14
2120.35	568.798
2128.84	595.558
2137.32	596.94
2145.81	559.079
2154.3	600.354
2162.79	551.839
2171.27	587.331
2179.76	605.089
2188.25	579.396
2196.74	559.883
2205.22	571.204
2213.71	581.372
2222.2	565.464
2230.69	577.007
2239.17	549.281
2247.66	563.985
2256.15	568.227
2264.64	558.406
2273.12	582.816
2281.61	578.448
2290.1	570.661
2298.59	577.287
2307.07	575.358
2315.56	579.904
2324.05	572.884
2332.54	593.527
2341.02	563.325
2349.51	555.313
2358	546.587
2366.49	571.296
2374.97	603.516
2383.46	579.068
2391.95	564.274
2400.44	590.898
2408.92	561.779
2417.41	574.369
2425.9	595.291
2434.39	571.783
2442.87	577.713
2451.36	604.545
2459.85	568.344
2468.34	598.741
2476.82	583.058
2485.31	576.369
2493.8	559.039
2502.29	567.76
2510.77	575.471
2519.26	582.473
2527.75	576.349
2536.24	563.357
2544.72	571.721
2553.21	601.169
2561.7	613.022
2570.19	567.147
2578.67	615.329
2587.16	628.63
2595.65	623.659
2604.14	637.957
2612.62	636.382
2621.11	651.419
2629.6	640.929
2638.08	664.308
2646.57	655.793
2655.06	707.537
2663.55	684.932
2672.03	723.163
2680.52	697.911
2689.01	692.422
2697.5	658
2705.98	660.381
2714.47	632.852
2722.96	625.336
2731.45	623.723
2739.93	646.902
2748.42	606.932
2756.91	596.611
2765.4	639.244
2773.88	597.253
2782.37	596
2790.86	591.689
2799.35	588.672
2807.83	592.286
2816.32	559.738
2824.81	604.075
2833.3	605.071
2841.78	593.009
2850.27	577.188
2858.76	598.296
2867.25	585.514
2875.73	590.309
2884.22	587.767
2892.71	619.22
2901.2	573.396
2909.68	579.832
2918.17	589.357
2926.66	593.558
2935.15	624.573
2943.63	609.394
2952.12	588.105
2960.61	542.156
2969.1	589.957
2977.58	552.805
2986.07	534.416
2994.56	514.119
3003.05	520.617
3011.53	517.014
3020.02	525.901
3028.51	511.789
3037	507.26
3045.48	497.358
3053.97	538.474
3062.46	505.441
3070.95	534.197
3079.43	507.573
3087.92	511.319
3096.41	518.108
3104.9	521.69
3113.38	508.596
3121.87	492.136
3130.36	505.28
3138.85	482.655
3147.33	517.778
3155.82	505.059
3164.31	477.78
3172.8	476.416
3181.28	453.157
3189.77	485.631
3198.26	474.758
3206.75	459.435
3215.23	489.406
3223.72	466.282
3232.21	479.823
3240.7	525.048
3249.18	442.445
3257.67	464.05
3266.16	435.232
3274.65	456.333
3283.13	446.029
3291.62	456.888
3300.11	405.725
3308.6	460.467
3317.08	444.609
3325.57	445.751
3334.06	439.173
3342.55	409.224
3351.03	456.853
3359.52	425.598
3368.01	420.431
3376.5	414.803
3384.98	420.332
3393.47	432.448
3400	409.457