Folder: Graphs/Example Data/Raman/CNT - TIM/Raytheon/Al foil/2010/08-12-10

Note: README.md
# Graphs
A macOS app that manages the organization of data files and graphs them.

Licensed under the MIT licensing terms: https://opensource.org/licenses/MIT

Hildreth wrote the precursor to Graphs, then called GraphBase, during his Ph.D. to help manage the data he was collecting as part of his research on Metal-assisted Chemical Etching of Silicon.  He was becoming overwhelmed by the hundreds of data files he was collecting every week and was inspired by the Papers and iTunes applications on OS X (now macOS) to create an application that managed data.  GraphBase provided an easy template to create a parser, a simple UI to organize data into hiarchical folders, and leveraged the DataGraph framework (http://www.visualdatatools.com/DataGraph/Framework/) for graphing.  DataGraph (http://www.visualdatatools.com/DataGraph/) is an amazing 2D graphing application and you will need to purchase a DataGraph license from Visual Data Tools in order to use Graphs.

Graphs is a rewrite of GraphBase in Swift written by Connor and then re-written again by Hildreth that has been open sourced for use by all.  Please not that you will need a DataGraph license to create the graph templates used by the DataGraph framework underlying Graphs.  Hildreth plans to continue evolving this application.  The next plan improvements are: multithreading for import and parsing using the new Results type in Swift; and begin switching over to SwiftUI for the UI.  Long term, we hope to add support for data analysis and extraction.

# Overview
Graphs is a data management tool that allows you to store your raw data files in a text formate (CSV, tab delimited, etc.) and then have those files parsed and graphed when selected.  Graphs uses the DataGraph fromework 

To use Graphs, first you create an example graph, what we call a Graph Template, in DataGraph.  Format the graph the way you want it to look and make sure that the Data Columns are in the same order as the columns in your data.  Next, you  add your "Graph Template" to Graphs using either the Graph Template Inspector on the right side of Graphs using using the "+" sign on the bottom left of the application.  You can also drag-and-drop the file onto a folder in the Source List.  Once you add a Graph Template, you can assign it to be the default Graph Template for a folder and any sub-folders using the Folder Inspector.

The second step is to make a Paser using the Parser Inspector.  It might be helpful to have an example file already in Graphs (see Step 3) because you can use the Text Inspector to see what lines your Experimental Details, Header, and Data start at.  Add a Parse Template using the + sign in the Parse Inspector's table and give the Parse Template a name.  If your data has experimental details at the top, then select the checkbox and set the starting and ending lines for this information.  If your data has a Header, select the Header checkbox, give it starting and ending line numbers, and then select the type of s

File: Al batch 14 - bottom.txt
300	54.6338
306.073	64.9785
312.147	66.538
318.22	61.7886
324.294	61.3354
330.367	45.354
336.44	51.5199
342.514	51.1547
348.587	54.7998
354.66	46.6942
360.734	43.8897
366.807	43.9857
372.881	35.6456
378.954	36.643
385.027	35.9402
391.101	41.4813
397.174	28.6142
403.248	40.5306
409.321	31.4984
415.394	32.8203
421.468	29.7222
427.541	29.4564
433.615	35.6822
439.688	26.0448
445.761	25.0709
451.835	19.5523
457.908	25.1569
463.981	16.3195
470.055	20.2922
476.128	19.0609
482.202	20.348
488.275	10.0908
494.348	10.683
500.422	4.60553
506.495	7.70943
512.569	5.68525
518.642	-4.7828
524.715	3.67526
530.789	-5.27993
536.862	-1.95505
542.935	5.26689
549.009	2.71868
555.082	0.0829636
561.156	2.89996
567.229	2.50029
573.302	0.589064
579.376	2.55501
585.449	-0.31099
591.523	3.69234
597.596	6.45606
603.669	1.04816
609.743	-3.84104
615.816	1.3577
621.89	5.46094
627.963	7.97747
634.036	7.30652
640.11	13.934
646.183	4.89031
652.256	7.48189
658.33	13.439
664.403	15.1028
670.477	13.4884
676.55	17.1423
682.623	11.8844
688.697	12.9701
694.77	9.14694
700.844	1.12492
706.917	7.48857
712.99	15.9019
719.064	16.5889
725.137	18.6036
731.21	26.1585
737.284	25.5961
743.357	20.6211
749.431	12.6029
755.504	26.295
761.577	30.929
767.651	37.4684
773.724	33.9826
779.798	34.4737
785.871	36.6296
791.944	37.2177
798.018	38.9531
804.091	44.4202
810.164	40.9008
816.238	41.7697
822.311	45.2559
828.385	51.1187
834.458	49.6319
840.531	41.4425
846.605	47.4878
852.678	39.0321
858.752	45.8954
864.825	40.8287
870.898	24.3382
876.972	24.4593
883.045	27.5133
889.119	20.1156
895.192	16.4172
901.265	8.78932
907.339	0.945248
913.412	-0.450412
919.485	5.05119
925.559	-2.82273
931.632	-1.45551
937.706	4.94829
943.779	1.31575
949.852	-8.15106
955.926	-11.028
961.999	-13.4153
968.073	-21.4954
974.146	-24.1537
980.219	-18.1876
986.293	-22.6208
992.366	-33.645
998.439	-33.6694
1004.51	-33.0235
1010.59	-28.9259
1016.66	-16.0085
1022.73	-21.4055
1028.81	-26.5495
1034.88	-25.2408
1040.95	-26.0234
1047.03	-17.9302
1053.1	-25.8173
1059.17	-22.0016
1065.25	-23.7554
1071.32	-25.6615
1077.39	-23.0473
1083.47	-25.0623
1089.54	-19.016
1095.61	-18.491
1101.69	-14.6868
1107.76	-25.9483
1113.83	-11.6551
1119.91	-15.824
1125.98	-10.5185
1132.05	-5.90867
1138.13	-0.681993
1144.2	3.94059
1150.27	19.4832
1156.35	23.3686
1162.42	19.5827
1168.49	19.5116
1174.57	21.9778
1180.64	17.3788
1186.71	25.4889
1192.79	26.6535
1198.86	21.4715
1204.93	36.9322
1211.01	39.1652
1217.08	40.188
1223.15	43.5089
1229.23	50.7644
1235.3	67.8831
1241.375	75.3017
1247.45	98.7458
1253.52	97.8386
1259.6	118.76
1265.67	144.296
1271.74	151.433
1277.82	191.253
1283.89	207.693
1289.96	240.756
1296.04	298.86
1302.11	354.89
1308.18	367.532
1314.26	430.185
1320.33	477.05
1326.4	503.913
1332.48	559.112
1338.55	606.87
1344.62	586.206
1350.7	575.521
1356.77	530.431
1362.84	514.804
1368.92	459.718
1374.99	420.256
1381.06	365.948
1387.14	311.763
1393.21	255.104
1399.28	243.515
1405.36	203.16
1411.43	161.177
1417.5	141.623
1423.58	105.603
1429.65	88.3712
1435.72	65.8284
1441.8	50.1581
1447.87	50.4044
1453.94	50.5686
1460.02	3.46422
1466.09	17.9402
1472.16	3.58209
1478.24	9.11146
1484.31	8.66868
1490.38	15.2395
1496.46	11.0113
1502.53	31.6507
1508.6	35.0447
1514.68	75.1933
1520.75	108.552
1526.82	119.936
1532.9	131.117
1538.97	145.497
1545.04	198.572
1551.12	247.163
1557.19	292.535
1563.26	335.306
1569.34	414.993
1575.41	461.898
1581.48	547.099
1587.56	615.024
1593.63	660.016
1599.7	688.506
1605.78	664.337
1611.85	619.016
1617.92	545.908
1624	475.361
1630.07	375.527
1636.15	301.878
1642.22	232.074
1648.29	183.257
1654.37	137.423
1660.44	105.014
1666.51	62.3407
1672.59	38.9296
1678.66	22.2796
1684.73	14.5091
1690.81	10.7343
1696.88	11.4832
1702.95	6.07096
1709.03	1.84994
1715.1	-0.495811
1721.17	-0.171922
1727.25	0.0892403
1733.32	-9.80105
1739.39	-5.87659
1745.47	-1.64833
1751.54	-3.08937
1757.61	-5.74252
1763.69	-4.47731
1769.76	-2.36502
1775.83	-1.30666
1781.91	5.18144
1787.98	-9.59083
1794.05	-3.99225
1800.13	2.24583
1806.2	7.76549
1812.27	3.7557
1818.35	0.368674
1824.42	-1.82602
1830.49	-3.10183
1836.57	0.0802366
1842.64	1.04545
1848.71	-9.94349
1854.79	2.02207
1860.86	-0.0735246
1866.93	3.54073
1873.01	-2.16238
1879.08	-10.5762
1885.15	0.746704
1891.23	2.39317
1897.3	-6.26136
1903.37	11.3686
1909.45	-3.22369
1915.52	-3.63309
1921.59	-2.19401
1927.67	-3.15288
1933.74	3.9657
1939.81	-4.2728
1945.89	-0.0789014
1951.96	-4.20224
1958.03	5.47673
1964.11	-7.28851
1970.18	-6.77086
1976.25	-4.10908
1982.33	-6.39233
1988.4	-4.09994
1994.47	1.41799
2000.55	-2.49504
2006.62	-5.20588
2012.7	-10.8192
2018.77	1.07968
2024.84	-3.92439
2030.92	-4.18179
2036.99	-3.50272
2043.06	1.44754
2049.14	-5.65873
2055.21	-0.62842
2061.28	1.36988
2067.36	-5.39485
2073.43	-1.18975
2079.5	-3.90695
2085.58	-4.85864
2091.65	-0.814181
2097.72	-5.63459
2100	4.75259

File: Al batch 14 - top_1.txt
300	-14.2873
306.073	-3.86872
312.147	9.49091
318.22	-1.79842
324.294	3.83705
330.367	-2.70314
336.44	-0.957953
342.514	-0.87973
348.587	2.92597
354.66	-3.96975
360.734	8.89452
366.807	4.11934
372.881	-4.65888
378.954	-6.41354
385.027	-2.96209
391.101	-0.0492457
397.174	-1.8073
403.248	8.23018
409.321	0.229639
415.394	12.0828
421.468	8.18491
427.541	1.63209
433.615	-1.36971
439.688	3.9623
445.761	6.01547
451.835	2.88275
457.908	1.36753
463.981	6.87919
470.055	7.81026
476.128	3.0588
482.202	2.22415
488.275	-3.28402
494.348	2.20585
500.422	1.83204
506.495	-1.25007
512.569	2.89681
518.642	-0.782961
524.715	-3.03936
530.789	0.334085
536.862	-3.42125
542.935	1.13665
549.009	1.85034
555.082	5.20897
561.156	2.40983
567.229	4.99634
573.302	0.566319
579.376	-0.947274
585.449	2.4307
591.523	0.470502
597.596	2.40854
603.669	-0.0341002
609.743	-8.10719
615.816	-1.906
621.89	3.24848
627.963	-0.767427
634.036	-3.37727
640.11	4.07012
646.183	-6.59933
652.256	-4.2171
658.33	2.40851
664.403	4.85151
670.477	-8.88403
676.55	3.62535
682.623	10.4759
688.697	5.12273
694.77	5.34628
700.844	4.81087
706.917	12.0014
712.99	0.839827
719.064	11.3654
725.137	16.8394
731.21	15.8912
737.284	19.3841
743.357	15.1793
749.431	22.3722
755.504	26.291
761.577	31.0369
767.651	20.9957
773.724	26.8172
779.798	31.2289
785.871	32.4176
791.944	31.1966
798.018	36.6288
804.091	40.3169
810.164	49.1529
816.238	40.4658
822.311	44.2104
828.385	52.8649
834.458	45.6885
840.531	36.5497
846.605	46.8591
852.678	51.4802
858.752	51.8093
864.825	47.9664
870.898	34.7524
876.972	27.011
883.045	27.7733
889.119	25.8035
895.192	22.549
901.265	21.1563
907.339	16.6593
913.412	8.79818
919.485	16.9275
925.559	14.6422
931.632	0.850114
937.706	0.657631
943.779	13.7596
949.852	4.04245
955.926	-11.9517
961.999	-0.797795
968.073	-19.1041
974.146	-8.43861
980.219	-12.9415
986.293	-22.3438
992.366	-23.4933
998.439	-25.1711
1004.51	-24.4682
1010.59	-23.6827
1016.66	-25.9718
1022.73	-14.9272
1028.81	-16.0302
1034.88	-19.9999
1040.95	-20.8258
1047.03	-20.6672
1053.1	-16.0664
1059.17	-25.4066
1065.25	-26.2794
1071.32	-30.7456
1077.39	-17.2981
1083.47	-20.7444
1089.54	-25.6786
1095.61	-13.6471
1101.69	-16.8305
1107.76	-15.6086
1113.83	-17.1737
1119.91	-12.5553
1125.98	-3.34044
1132.05	-16.9441
1138.13	-8.23954
1144.2	-8.99849
1150.27	11.464
1156.35	24.0178
1162.42	-0.413811
1168.49	9.27284
1174.57	19.0514
1180.64	15.3494
1186.71	20.1481
1192.79	15.2659
1198.86	19.2943
1204.93	17.6446
1211.01	28.1782
1217.08	35.4802
1223.15	48.1339
1229.23	48.5983
1235.3	60.3116
1241.375	53.6007
1247.45	88.5171
1253.52	102.858
1259.6	112.102
1265.67	136.528
1271.74	149.807
1277.82	201.252
1283.89	247.918
1289.96	271.088
1296.04	324.045
1302.11	398.967
1308.18	452.495
1314.26	568.443
1320.33	654.131
1326.4	750.276
1332.48	835.507
1338.55	909.948
1344.62	947.924
1350.7	939.294
1356.77	886.975
1362.84	795.042
1368.92	693.525
1374.99	589.152
1381.06	518.427
1387.14	415.187
1393.21	360.894
1399.28	292.97
1405.36	229.166
1411.43	202.524
1417.5	153.53
1423.58	140.328
1429.65	87.051
1435.72	93.3296
1441.8	70.8565
1447.87	52.4916
1453.94	23.1248
1460.02	51.896
1466.09	9.5703
1472.16	11.6536
1478.24	0.982076
1484.31	2.14543
1490.38	7.90211
1496.46	13.6979
1502.53	22.9671
1508.6	49.9827
1514.68	81.3826
1520.75	108.289
1526.82	131.287
1532.9	144.154
1538.97	208.412
1545.04	242.02
1551.12	311.08
1557.19	404.392
1563.26	455.684
1569.34	573.475
1575.41	648.498
1581.48	772.245
1587.56	839.241
1593.63	913.227
1599.7	895.022
1605.78	892.358
1611.85	859.271
1617.92	805.417
1624	690.075
1630.07	571.089
1636.15	466.282
1642.22	355.147
1648.29	259.923
1654.37	185.678
1660.44	145.768
1666.51	102.095
1672.59	77.0608
1678.66	51.0173
1684.73	33.1139
1690.81	24.1832
1696.88	18.7758
1702.95	11.6925
1709.03	10.584
1715.1	2.0939
1721.17	4.65102
1727.25	2.45662
1733.32	1.88955
1739.39	-2.59549
1745.47	-3.57193
1751.54	-0.853008
1757.61	-4.86724
1763.69	-9.02551
1769.76	-8.24144
1775.83	-8.59185
1781.91	-4.9624
1787.98	-9.1905
1794.05	-4.35341
1800.13	-2.51966
1806.2	-8.05287
1812.27	-6.45253
1818.35	-7.83181
1824.42	-5.67392
1830.49	-4.25681
1836.57	-4.28421
1842.64	-9.29081
1848.71	-2.27037
1854.79	-2.42095
1860.86	0.483279
1866.93	-0.959764
1873.01	-5.99682
1879.08	-4.29504
1885.15	-3.88734
1891.23	-5.52974
1897.3	5.47269
1903.37	2.72148
1909.45	-2.02285
1915.52	-3.1661
1921.59	6.99093
1927.67	-0.480571
1933.74	1.09482
1939.81	-1.96964
1945.89	-6.53404
1951.96	-5.17846
1958.03	-2.79663
1964.11	-5.28057
1970.18	-6.74462
1976.25	-2.87079
1982.33	0.141409
1988.4	-1.36531
1994.47	1.098
2000.55	-2.51271
2006.62	0.303385
2012.7	1.75803
2018.77	3.44534
2024.84	1.44545
2030.92	-0.467561
2036.99	7.86739
2043.06	7.13954
2049.14	7.59329
2055.21	0.872253
2061.28	3.36958
2067.36	-1.83821
2073.43	2.11694
2079.5	6.21174
2085.58	3.51585
2091.65	4.2448
2097.72	3.54086
2100	5.33475

File: Al batch 15 - bottom_2.txt
300	57.0685
306.073	58.0896
312.147	58.0275
318.22	66.3791
324.294	54.1953
330.367	60.6772
336.44	54.3023
342.514	60.0798
348.587	54.4905
354.66	49.8809
360.734	47.1832
366.807	39.5187
372.881	42.2304
378.954	39.412
385.027	43.0793
391.101	36.63
397.174	37.3348
403.248	36.3393
409.321	30.2354
415.394	31.4088
421.468	32.7509
427.541	33.3727
433.615	30.415
439.688	26.5982
445.761	27.6244
451.835	28.9012
457.908	26.0554
463.981	16.9617
470.055	25.9057
476.128	9.93323
482.202	9.95871
488.275	14.0844
494.348	8.90739
500.422	7.80695
506.495	8.23417
512.569	0.277366
518.642	2.07857
524.715	4.74989
530.789	1.77876
536.862	-6.08872
542.935	-1.64079
549.009	5.91958
555.082	0.530978
561.156	-0.970897
567.229	-5.42624
573.302	0.504902
579.376	4.11833
585.449	6.59416
591.523	4.20994
597.596	8.45191
603.669	6.93489
609.743	3.67126
615.816	6.18604
621.89	2.98548
627.963	1.17812
634.036	1.53399
640.11	3.21895
646.183	11.1993
652.256	7.13614
658.33	2.83297
664.403	14.1034
670.477	15.2071
676.55	5.74071
682.623	11.6405
688.697	13.4577
694.77	12.5658
700.844	5.09329
706.917	10.5005
712.99	13.8807
719.064	19.1392
725.137	15.0059
731.21	22.2585
737.284	23.738
743.357	26.426
749.431	25.0807
755.504	35.9877
761.577	25.7807
767.651	28.8256
773.724	31.3153
779.798	36.3099
785.871	44.215
791.944	36.7621
798.018	31.7565
804.091	48.2941
810.164	39.6325
816.238	39.2427
822.311	38.2892
828.385	42.1156
834.458	47.9781
840.531	54.9108
846.605	42.6737
852.678	46.8366
858.752	46.6185
864.825	42.0414
870.898	41.8646
876.972	29.046
883.045	28.3353
889.119	20.4318
895.192	13.6283
901.265	14.9724
907.339	17.0985
913.412	-0.652411
919.485	0.27435
925.559	8.45316
931.632	-0.194115
937.706	6.535
943.779	-2.76334
949.852	-3.76296
955.926	2.70896
961.999	-0.676908
968.073	-9.58278
974.146	-9.50494
980.219	-10.9733
986.293	-20.8064
992.366	-22.188
998.439	-17.5199
1004.51	-11.7871
1010.59	-20.9781
1016.66	-16.5941
1022.73	-9.54887
1028.81	-23.9876
1034.88	-22.1312
1040.95	-19.5694
1047.03	-11.1671
1053.1	-14.8625
1059.17	-20.1605
1065.25	-16.6332
1071.32	-20.8324
1077.39	-22.2692
1083.47	-14.3583
1089.54	-9.04296
1095.61	-23.8086
1101.69	-24.6756
1107.76	-13.9928
1113.83	-14.1917
1119.91	-16.2159
1125.98	-21.6708
1132.05	-2.38764
1138.13	6.4666
1144.2	11.165
1150.27	22.966
1156.35	17.035
1162.42	25.1725
1168.49	24.595
1174.57	33.2095
1180.64	29.1514
1186.71	30.8662
1192.79	23.4851
1198.86	32.7552
1204.93	38.8135
1211.01	34.3464
1217.08	38.8413
1223.15	44.9504
1229.23	62.0013
1235.3	63.1189
1241.375	65.8717
1247.45	75.6837
1253.52	87.1106
1259.6	120.169
1265.67	129.598
1271.74	140.382
1277.82	193.592
1283.89	218.235
1289.96	256.761
1296.04	299.046
1302.11	348.811
1308.18	355.281
1314.26	424.515
1320.33	486.086
1326.4	520.251
1332.48	576.25
1338.55	552.542
1344.62	591.869
1350.7	588.552
1356.77	561.381
1362.84	520.705
1368.92	456.279
1374.99	409.528
1381.06	363.652
1387.14	322.858
1393.21	274.851
1399.28	234.934
1405.36	209.401
1411.43	152.731
1417.5	132.406
1423.58	99.954
1429.65	98.2761
1435.72	59.1446
1441.8	61.0857
1447.87	60.4339
1453.94	35.1619
1460.02	9.75889
1466.09	13.1662
1472.16	10.1668
1478.24	-5.7441
1484.31	-10.1453
1490.38	17.3813
1496.46	28.3003
1502.53	30.1959
1508.6	42.776
1514.68	74.5536
1520.75	89.5043
1526.82	101.869
1532.9	127.886
1538.97	169.92
1545.04	180.479
1551.12	235.715
1557.19	290.957
1563.26	334.939
1569.34	384.075
1575.41	472.081
1581.48	539.655
1587.56	608.384
1593.63	651.201
1599.7	693.086
1605.78	700.899
1611.85	656.035
1617.92	568.97
1624	477.119
1630.07	383.529
1636.15	294.766
1642.22	234.104
1648.29	162.31
1654.37	133.177
1660.44	103.63
1666.51	54.2583
1672.59	35.1679
1678.66	23.1569
1684.73	11.0998
1690.81	5.43484
1696.88	2.43457
1702.95	3.88663
1709.03	5.17568
1715.1	5.34932
1721.17	-11.8589
1727.25	-4.96449
1733.32	-3.13822
1739.39	-3.71024
1745.47	-2.09244
1751.54	-3.86609
1757.61	-4.88072
1763.69	-1.48719
1769.76	7.02835
1775.83	-3.06318
1781.91	2.75843
1787.98	8.75676
1794.05	10.5303
1800.13	6.01106
1806.2	4.39993
1812.27	9.55059
1818.35	7.08313
1824.42	1.86725
1830.49	4.91817
1836.57	7.18024
1842.64	11.2467
1848.71	-4.9789
1854.79	10.5507
1860.86	3.23221
1866.93	11.6241
1873.01	9.93776
1879.08	4.57547
1885.15	10.9869
1891.23	3.13255
1897.3	-0.500028
1903.37	11.3659
1909.45	8.61468
1915.52	8.96973
1921.59	10.8838
1927.67	3.54845
1933.74	-2.05229
1939.81	12.6202
1945.89	18.7105
1951.96	10.2628
1958.03	5.94594
1964.11	5.30739
1970.18	14.8822
1976.25	14.9821
1982.33	12.2976
1988.4	6.28333
1994.47	7.1546
2000.55	6.32592
2006.62	14.1805
2012.7	3.27985
2018.77	7.25794
2024.84	3.04906
2030.92	-0.74066
2036.99	-1.21291
2043.06	-0.508526
2049.14	-2.86284
2055.21	5.24056
2061.28	3.66047
2067.36	-4.04427
2073.43	3.94343
2079.5	-2.46565
2085.58	-6.24796
2091.65	0.194457
2097.72	0.651104
2100	-2.38953

File: Al batch 15 - top.txt
300	41.4069
306.073	42.09
312.147	37.6125
318.22	30.4132
324.294	31.5907
330.367	26.8995
336.44	27.7792
342.514	34.2446
348.587	26.349
354.66	21.286
360.734	34.7201
366.807	22.6567
372.881	16.5191
378.954	23.3901
385.027	26.7911
391.101	18.138
397.174	21.0316
403.248	14.1541
409.321	9.86333
415.394	13.6076
421.468	22.7211
427.541	12.3625
433.615	20.5488
439.688	17.8036
445.761	14.5735
451.835	14.3976
457.908	12.9527
463.981	9.67202
470.055	3.2625
476.128	6.68722
482.202	10.7144
488.275	2.51969
494.348	-0.386083
500.422	-7.39388
506.495	-4.31669
512.569	-1.73133
518.642	-8.82709
524.715	-5.61907
530.789	-0.83522
536.862	-8.34975
542.935	-7.61418
549.009	-7.20145
555.082	2.5354
561.156	-5.34833
567.229	0.0197949
573.302	-1.38101
579.376	2.04386
585.449	4.75717
591.523	5.60224
597.596	3.47553
603.669	-0.238616
609.743	8.53054
615.816	-9.18929
621.89	8.00011
627.963	2.34115
634.036	-2.79266
640.11	0.0741115
646.183	9.31547
652.256	7.98075
658.33	6.10389
664.403	13.1203
670.477	2.45004
676.55	8.5997
682.623	15.0077
688.697	8.71733
694.77	10.7665
700.844	13.6858
706.917	8.01098
712.99	9.06815
719.064	13.2207
725.137	17.7681
731.21	7.12417
737.284	20.2969
743.357	26.7586
749.431	18.5406
755.504	24.8234
761.577	19.0272
767.651	32.0959
773.724	35.0012
779.798	24.6042
785.871	37.6166
791.944	35.1663
798.018	33.4983
804.091	35.3784
810.164	39.2096
816.238	41.4853
822.311	39.041
828.385	42.3087
834.458	44.1295
840.531	39.7472
846.605	49.1701
852.678	41.8241
858.752	40.871
864.825	33.0192
870.898	32.9669
876.972	23.7715
883.045	20.1288
889.119	21.8745
895.192	11.7307
901.265	4.52975
907.339	6.41893
913.412	11.6783
919.485	-8.22736
925.559	4.29474
931.632	0.64487
937.706	-3.02609
943.779	2.68603
949.852	2.13355
955.926	-3.94355
961.999	-6.66159
968.073	-9.2233
974.146	-10.4204
980.219	-4.2269
986.293	-0.723219
992.366	-2.3697
998.439	-15.8911
1004.51	-10.4938
1010.59	-3.30605
1016.66	0.539061
1022.73	-2.32556
1028.81	1.36659
1034.88	17.0533
1040.95	4.75199
1047.03	13.9757
1053.1	0.543026
1059.17	17.6579
1065.25	3.74385
1071.32	10.2905
1077.39	12.3465
1083.47	14.5363
1089.54	12.551
1095.61	2.23623
1101.69	3.45272
1107.76	20.0046
1113.83	25.5171
1119.91	22.1949
1125.98	23.9735
1132.05	22.7535
1138.13	39.1732
1144.2	36.1912
1150.27	32.2426
1156.35	40.9367
1162.42	50.9856
1168.49	54.1526
1174.57	51.3782
1180.64	56.1517
1186.71	49.9899
1192.79	47.1413
1198.86	60.9596
1204.93	69.8435
1211.01	66.9706
1217.08	71.0465
1223.15	64.0287
1229.23	90.2391
1235.3	87.301
1241.375	117.684
1247.45	118.274
1253.52	146.556
1259.6	150.681
1265.67	194.705
1271.74	218.662
1277.82	256.299
1283.89	278.42
1289.96	305.709
1296.04	342.296
1302.11	403.22
1308.18	474.669
1314.26	526.261
1320.33	571.998
1326.4	673.182
1332.48	740.056
1338.55	757.083
1344.62	782.229
1350.7	762.158
1356.77	743.206
1362.84	678.241
1368.92	611.693
1374.99	543.285
1381.06	474.783
1387.14	410.781
1393.21	374.864
1399.28	298.378
1405.36	258.371
1411.43	220.299
1417.5	188.571
1423.58	150.377
1429.65	122.96
1435.72	94.1381
1441.8	82.4896
1447.87	61.2049
1453.94	55.5105
1460.02	38.8869
1466.09	23.0934
1472.16	15.4822
1478.24	0.875972
1484.31	-0.530409
1490.38	13.8196
1496.46	23.6727
1502.53	52.5168
1508.6	61.6304
1514.68	77.9115
1520.75	103.199
1526.82	133.919
1532.9	147.27
1538.97	198.946
1545.04	200.529
1551.12	254.381
1557.19	352.185
1563.26	389.525
1569.34	468.409
1575.41	548.102
1581.48	645.657
1587.56	735.996
1593.63	820.86
1599.7	830.57
1605.78	845.779
1611.85	782.681
1617.92	718.251
1624	617.695
1630.07	495.228
1636.15	395.247
1642.22	300.872
1648.29	235.472
1654.37	175.897
1660.44	126.268
1666.51	88.594
1672.59	59.5587
1678.66	32.5135
1684.73	20.0884
1690.81	12.3554
1696.88	12.7014
1702.95	13.8714
1709.03	7.64313
1715.1	7.46417
1721.17	8.03485
1727.25	6.23381
1733.32	10.1554
1739.39	1.77517
1745.47	4.95134
1751.54	-1.97812
1757.61	-1.15335
1763.69	-0.807615
1769.76	-8.67058
1775.83	-6.9357
1781.91	-15.6621
1787.98	-7.29514
1794.05	-8.39665
1800.13	-2.13297
1806.2	-12.55
1812.27	-13.1653
1818.35	-4.77369
1824.42	-6.05067
1830.49	-3.23145
1836.57	-11.5507
1842.64	-11.4146
1848.71	-2.88426
1854.79	-2.75722
1860.86	-4.35308
1866.93	-10.3427
1873.01	-1.79174
1879.08	0.613423
1885.15	-1.38832
1891.23	3.72295
1897.3	1.32038
1903.37	0.663688
1909.45	0.960601
1915.52	-2.59769
1921.59	-3.24193
1927.67	4.8183
1933.74	5.71796
1939.81	4.39263
1945.89	-4.38814
1951.96	7.12339
1958.03	2.2091
1964.11	4.25896
1970.18	-2.21792
1976.25	-5.55417
1982.33	-0.450065
1988.4	-1.44186
1994.47	-2.23097
2000.55	0.352977
2006.62	5.29184
2012.7	0.973084
2018.77	-4.93926
2024.84	-1.99296
2030.92	-1.25339
2036.99	-0.931857
2043.06	2.23203
2049.14	4.38167
2055.21	3.46388
2061.28	2.39574
2067.36	-4.61246
2073.43	0.750763
2079.5	-4.39985
2085.58	7.69481
2091.65	6.52996
2097.72	9.95711
2100	9.22466