Folder: Graphs/Example Data/Raman/CNT - TIM/Raytheon/Al foil/2010/08-10-10

Note: README.md
# Graphs
A macOS app that manages the organization of data files and graphs them.

Licensed under the MIT licensing terms: https://opensource.org/licenses/MIT

Hildreth wrote the precursor to Graphs, then called GraphBase, during his Ph.D. to help manage the data he was collecting as part of his research on Metal-assisted Chemical Etching of Silicon.  He was becoming overwhelmed by the hundreds of data files he was collecting every week and was inspired by the Papers and iTunes applications on OS X (now macOS) to create an application that managed data.  GraphBase provided an easy template to create a parser, a simple UI to organize data into hiarchical folders, and leveraged the DataGraph framework (http://www.visualdatatools.com/DataGraph/Framework/) for graphing.  DataGraph (http://www.visualdatatools.com/DataGraph/) is an amazing 2D graphing application and you will need to purchase a DataGraph license from Visual Data Tools in order to use Graphs.

Graphs is a rewrite of GraphBase in Swift written by Connor and then re-written again by Hildreth that has been open sourced for use by all.  Please not that you will need a DataGraph license to create the graph templates used by the DataGraph framework underlying Graphs.  Hildreth plans to continue evolving this application.  The next plan improvements are: multithreading for import and parsing using the new Results type in Swift; and begin switching over to SwiftUI for the UI.  Long term, we hope to add support for data analysis and extraction.

# Overview
Graphs is a data management tool that allows you to store your raw data files in a text formate (CSV, tab delimited, etc.) and then have those files parsed and graphed when selected.  Graphs uses the DataGraph fromework 

To use Graphs, first you create an example graph, what we call a Graph Template, in DataGraph.  Format the graph the way you want it to look and make sure that the Data Columns are in the same order as the columns in your data.  Next, you  add your "Graph Template" to Graphs using either the Graph Template Inspector on the right side of Graphs using using the "+" sign on the bottom left of the application.  You can also drag-and-drop the file onto a folder in the Source List.  Once you add a Graph Template, you can assign it to be the default Graph Template for a folder and any sub-folders using the Folder Inspector.

The second step is to make a Paser using the Parser Inspector.  It might be helpful to have an example file already in Graphs (see Step 3) because you can use the Text Inspector to see what lines your Experimental Details, Header, and Data start at.  Add a Parse Template using the + sign in the Parse Inspector's table and give the Parse Template a name.  If your data has experimental details at the top, then select the checkbox and set the starting and ending lines for this information.  If your data has a Header, select the Header checkbox, give it starting and ending line numbers, and then select the type of s

File: Au foil_bottom.txt
300	79.4789
306.073	109.079
312.147	105.217
318.22	91.6396
324.294	72.3743
330.367	92.2068
336.44	84.217
342.514	76.821
348.587	93.2618
354.66	88.3298
360.734	87.157
366.807	84.986
372.881	74.8258
378.954	64.6302
385.027	60.4308
391.101	55.885
397.174	49.9014
403.248	56.0684
409.321	64.1219
415.394	62.1592
421.468	52.3789
427.541	54.6169
433.615	64.0248
439.688	44.8894
445.761	48.0603
451.835	41.4531
457.908	42.0686
463.981	25.2923
470.055	31.6166
476.128	0.618404
482.202	21.6652
488.275	25.8038
494.348	16.6439
500.422	20.3276
506.495	15.1362
512.569	16.1782
518.642	12.9489
524.715	12.3815
530.789	15.9414
536.862	18.2779
542.935	12.9614
549.009	2.77781
555.082	8.12036
561.156	22.8538
567.229	20.4833
573.302	10.8623
579.376	19.0078
585.449	28.5784
591.523	24.8412
597.596	10.414
603.669	22.9725
609.743	21.3595
615.816	38.1547
621.89	13.1458
627.963	19.6625
634.036	27.1608
640.11	19.3164
646.183	21.2664
652.256	25.7561
658.33	21.5502
664.403	24.4257
670.477	27.1071
676.55	15.7914
682.623	16.6325
688.697	10.888
694.77	13.05
700.844	19.2734
706.917	10.2789
712.99	8.13951
719.064	19.6459
725.137	24.1092
731.21	18.2046
737.284	23.0489
743.357	26.7411
749.431	31.7268
755.504	33.1415
761.577	27.0335
767.651	46.3958
773.724	29.3577
779.798	25.6548
785.871	32.5256
791.944	27.3672
798.018	39.7319
804.091	41.4546
810.164	37.8413
816.238	48.6777
822.311	45.2009
828.385	47.6014
834.458	50.1896
840.531	48.7657
846.605	55.4561
852.678	47.2824
858.752	56.5633
864.825	33.541
870.898	26.3082
876.972	33.1876
883.045	27.8021
889.119	24.6361
895.192	21.1323
901.265	19.9291
907.339	11.4065
913.412	8.85208
919.485	6.44744
925.559	14.163
931.632	-0.431425
937.706	17.7811
943.779	9.60979
949.852	13.2479
955.926	4.72221
961.999	5.25061
968.073	-0.939481
974.146	3.11065
980.219	9.01115
986.293	10.2695
992.366	23.7124
998.439	14.6161
1004.51	7.87651
1010.59	25.2711
1016.66	24.0924
1022.73	16.2485
1028.81	15.2669
1034.88	12.6432
1040.95	22.7223
1047.03	21.8019
1053.1	8.65976
1059.17	0.0648085
1065.25	1.37772
1071.32	1.60983
1077.39	2.01865
1083.47	-3.23938
1089.54	-2.45167
1095.61	2.97655
1101.69	9.90821
1107.76	12.2971
1113.83	15.348
1119.91	29.0618
1125.98	40.3404
1132.05	47.0643
1138.13	71.9867
1144.2	87.8858
1150.27	132.046
1156.35	143.692
1162.42	140.605
1168.49	150.565
1174.57	159.95
1180.64	186.108
1186.71	197.305
1192.79	205.781
1198.86	242.632
1204.93	234.75
1211.01	262.32
1217.08	258.577
1223.15	290.333
1229.23	296.191
1235.3	352.178
1241.375	353.806
1247.45	429.269
1253.52	449.842
1259.6	470.919
1265.67	534.394
1271.74	597.861
1277.82	694.623
1283.89	782.028
1289.96	872.659
1296.04	959.858
1302.11	1070.26
1308.18	1149.13
1314.26	1272.99
1320.33	1322.94
1326.4	1391.51
1332.48	1411.45
1338.55	1386.19
1344.62	1347.52
1350.7	1282.29
1356.77	1180.25
1362.84	1125.6
1368.92	979.284
1374.99	829.558
1381.06	781.754
1387.14	653.348
1393.21	556.266
1399.28	434.77
1405.36	386.348
1411.43	311.301
1417.5	245.799
1423.58	148.511
1429.65	155.32
1435.72	117.731
1441.8	100.297
1447.87	39.4809
1453.94	18.8515
1460.02	14.8334
1466.09	-5.11965
1472.16	-1.75182
1478.24	-14.0448
1484.31	11.0295
1490.38	-4.20362
1496.46	7.98572
1502.53	38.1848
1508.6	49.6788
1514.68	97.8878
1520.75	119.534
1526.82	167.624
1532.9	226.282
1538.97	272.773
1545.04	356.67
1551.12	448.104
1557.19	578.322
1563.26	681.131
1569.34	857.465
1575.41	1041.55
1581.48	1247.54
1587.56	1471.81
1593.63	1614.05
1599.7	1674.47
1605.78	1559.46
1611.85	1356.11
1617.92	1093.68
1624	793.839
1630.07	546.227
1636.15	390.495
1642.22	282.936
1648.29	210.53
1654.37	151.553
1660.44	83.6768
1666.51	54.1594
1672.59	36.0203
1678.66	12.2313
1684.73	-0.384771
1690.81	-2.53996
1696.88	12.8081
1702.95	5.82976
1709.03	8.09471
1715.1	-12.4123
1721.17	-2.24478
1727.25	-4.34579
1733.32	-1.23834
1739.39	-0.153842
1745.47	0.190362
1751.54	9.72749
1757.61	4.40058
1763.69	1.76715
1769.76	-6.03902
1775.83	-2.46183
1781.91	-2.51448
1787.98	-1.21443
1794.05	-1.91218
1800.13	2.99018
1806.2	4.83934
1812.27	5.25808
1818.35	4.33356
1824.42	-2.50856
1830.49	2.01297
1836.57	-0.189426
1842.64	-10.2295
1848.71	-0.776298
1854.79	0.219984
1860.86	-6.97918
1866.93	1.76108
1873.01	0.89278
1879.08	-7.65157
1885.15	-12.0605
1891.23	-3.41436
1897.3	6.26742
1903.37	1.38228
1909.45	-3.32369
1915.52	-8.71759
1921.59	13.0896
1927.67	-5.01363
1933.74	-1.52929
1939.81	2.0209
1945.89	-0.00131134
1951.96	-4.56924
1958.03	-2.76454
1964.11	2.67205
1970.18	-3.1036
1976.25	2.1003
1982.33	3.60435
1988.4	8.07223
1994.47	3.73343
2000.55	1.05574
2006.62	11.9901
2012.7	3.13113
2018.77	7.30931
2024.84	11.4329
2030.92	9.69096
2036.99	15.2807
2043.06	16.3253
2049.14	11.6138
2055.21	6.50591
2061.28	5.74528
2067.36	23.768
2073.43	12.3061
2079.5	11.8424
2085.58	8.2985
2091.65	7.64873
2097.72	13.2286
2100	8.78387

File: Au foil_top.txt
300	73.0099
306.073	88.8595
312.147	79.4346
318.22	83.0655
324.294	79.7195
330.367	79.8017
336.44	70.389
342.514	58.3721
348.587	69.1744
354.66	69.5522
360.734	67.2992
366.807	76.2523
372.881	62.5098
378.954	49.9579
385.027	54.7876
391.101	55.3701
397.174	59.6643
403.248	54.5848
409.321	52.4183
415.394	40.0329
421.468	41.666
427.541	49.1874
433.615	44.929
439.688	37.3766
445.761	38.6148
451.835	37.5731
457.908	35.536
463.981	20.6774
470.055	12.5292
476.128	18.3578
482.202	31.6143
488.275	16.2641
494.348	11.8621
500.422	12.305
506.495	8.12925
512.569	15.2823
518.642	7.7258
524.715	4.90446
530.789	-1.34442
536.862	8.0463
542.935	11.0143
549.009	4.82002
555.082	1.78761
561.156	-0.545885
567.229	2.15371
573.302	-1.43445
579.376	5.50179
585.449	9.45768
591.523	4.26733
597.596	5.69106
603.669	-3.93958
609.743	4.96156
615.816	10.928
621.89	2.85249
627.963	7.60485
634.036	6.56973
640.11	10.1144
646.183	6.63964
652.256	3.04163
658.33	17.0481
664.403	11.357
670.477	7.85418
676.55	10.4373
682.623	10.2087
688.697	17.9907
694.77	14.031
700.844	12.185
706.917	20.8812
712.99	15.7862
719.064	26.9273
725.137	18.2381
731.21	8.21434
737.284	18.0648
743.357	24.1231
749.431	19.7723
755.504	24.8482
761.577	23.2984
767.651	24.4686
773.724	37.5112
779.798	26.8211
785.871	34.0144
791.944	35.8409
798.018	32.1717
804.091	44.7681
810.164	30.6312
816.238	39.3495
822.311	43.4766
828.385	48.6152
834.458	51.6079
840.531	52.4515
846.605	50.6224
852.678	45.9742
858.752	45.096
864.825	34.9171
870.898	35.7643
876.972	33.3224
883.045	31.3149
889.119	35.6199
895.192	19.4936
901.265	12.8487
907.339	26.7441
913.412	3.51832
919.485	-5.26781
925.559	6.20482
931.632	3.58564
937.706	7.34811
943.779	10.2861
949.852	-5.16357
955.926	-1.28414
961.999	2.64925
968.073	-6.84487
974.146	7.72051
980.219	-4.03006
986.293	-8.51185
992.366	4.48923
998.439	8.40451
1004.51	-3.68382
1010.59	6.62985
1016.66	7.84404
1022.73	2.67463
1028.81	6.76313
1034.88	4.26641
1040.95	1.85683
1047.03	8.0934
1053.1	-12.1787
1059.17	1.17226
1065.25	4.68591
1071.32	1.96481
1077.39	2.27318
1083.47	6.98809
1089.54	-2.1804
1095.61	3.00137
1101.69	-0.866979
1107.76	15.6136
1113.83	16.7092
1119.91	19.6697
1125.98	28.686
1132.05	44.5685
1138.13	62.5355
1144.2	97.8589
1150.27	102.429
1156.35	109.863
1162.42	134.329
1168.49	145.134
1174.57	143.106
1180.64	154.963
1186.71	176.081
1192.79	206.873
1198.86	179.02
1204.93	189.983
1211.01	199.728
1217.08	226.848
1223.15	250.96
1229.23	256.474
1235.3	265.434
1241.375	286.304
1247.45	298.468
1253.52	342.311
1259.6	382.477
1265.67	399.375
1271.74	459.887
1277.82	508.265
1283.89	565.665
1289.96	611.003
1296.04	699.819
1302.11	756.334
1308.18	876.655
1314.26	931.231
1320.33	976.42
1326.4	1034.95
1332.48	1040.99
1338.55	1033.69
1344.62	982.391
1350.7	958.134
1356.77	880.679
1362.84	825.425
1368.92	734.007
1374.99	657.553
1381.06	545.88
1387.14	495.788
1393.21	399.726
1399.28	362.004
1405.36	259.187
1411.43	256.039
1417.5	184.03
1423.58	145.852
1429.65	116.448
1435.72	92.3962
1441.8	68.8482
1447.87	51.7444
1453.94	18.0504
1460.02	36.9609
1466.09	1.5286
1472.16	16.6522
1478.24	17.0845
1484.31	-9.61237
1490.38	-1.20361
1496.46	-8.25256
1502.53	-0.820161
1508.6	12.3558
1514.68	73.6089
1520.75	52.6349
1526.82	108.078
1532.9	145.926
1538.97	166.898
1545.04	213.501
1551.12	278.29
1557.19	358.824
1563.26	421.391
1569.34	536.995
1575.41	667.001
1581.48	833.975
1587.56	1025.79
1593.63	1190.8
1599.7	1293.25
1605.78	1266.34
1611.85	1280.95
1617.92	923.784
1624	661.783
1630.07	463.932
1636.15	320.051
1642.22	239.032
1648.29	145.871
1654.37	118.998
1660.44	60.4253
1666.51	42.3802
1672.59	11.8671
1678.66	-10.7222
1684.73	-15.8228
1690.81	-13.3036
1696.88	-11.1049
1702.95	-8.67802
1709.03	-9.87852
1715.1	-0.88125
1721.17	-3.47408
1727.25	-8.4455
1733.32	-9.15686
1739.39	-7.60771
1745.47	-9.28761
1751.54	-10.6102
1757.61	-9.28161
1763.69	-6.86148
1769.76	-12.5259
1775.83	-11.0409
1781.91	2.57099
1787.98	-5.37213
1794.05	-12.8217
1800.13	-3.35333
1806.2	-3.18726
1812.27	-3.47916
1818.35	-8.05585
1824.42	3.87815
1830.49	-4.82678
1836.57	0.282017
1842.64	-3.90217
1848.71	-3.05257
1854.79	-3.94799
1860.86	-1.87675
1866.93	7.27497
1873.01	0.505513
1879.08	6.93541
1885.15	-5.31351
1891.23	6.46726
1897.3	-1.51474
1903.37	4.25039
1909.45	6.24851
1915.52	7.79843
1921.59	-0.0486928
1927.67	10.4037
1933.74	10.44
1939.81	11.6753
1945.89	6.77704
1951.96	5.78229
1958.03	8.7969
1964.11	7.41608
1970.18	10.8752
1976.25	14.7734
1982.33	16.4531
1988.4	21.6534
1994.47	13.7578
2000.55	14.3221
2006.62	17.6965
2012.7	17.2985
2018.77	22.2544
2024.84	23.6933
2030.92	20.0178
2036.99	23.5502
2043.06	22.3124
2049.14	32.3669
2055.21	23.1541
2061.28	29.1641
2067.36	28.1155
2073.43	31.0797
2079.5	32.4403
2085.58	27.842
2091.65	27.9448
2097.72	32.0342
2100	37.056