Folder: Graphs/Example Data/Raman/CNT - TIM/Raytheon/Al foil/2010/08-12-10 (part 2)

File: Al batch 16 - bottom_1.txt
300	79.6246
306.073	90.8443
312.147	79.0112
318.22	87.652
324.294	76.8562
330.367	77.9206
336.44	83.9518
342.514	58.4495
348.587	71.6976
354.66	79.5634
360.734	73.6078
366.807	67.2981
372.881	77.5734
378.954	58.6806
385.027	62.4519
391.101	60.1263
397.174	62.488
403.248	77.4289
409.321	64.2702
415.394	60.7562
421.468	54.5802
427.541	60.4576
433.615	49.0105
439.688	58.765
445.761	56.6771
451.835	40.4406
457.908	40.6058
463.981	41.7006
470.055	38.6578
476.128	39.0301
482.202	36.6261
488.275	23.9018
494.348	27.9186
500.422	20.4476
506.495	14.1578
512.569	12.007
518.642	12.1412
524.715	12.8716
530.789	10.7405
536.862	10.9861
542.935	5.93285
549.009	12.9069
555.082	10.5512
561.156	6.10745
567.229	6.06374
573.302	2.00152
579.376	5.28821
585.449	13.1342
591.523	4.50836
597.596	8.03774
603.669	6.0581
609.743	5.79062
615.816	8.58806
621.89	13.7446
627.963	13.981
634.036	7.73021
640.11	23.2899
646.183	6.86242
652.256	12.2338
658.33	10.5188
664.403	13.2789
670.477	8.81834
676.55	3.11699
682.623	13.9379
688.697	27.1235
694.77	14.4778
700.844	21.4877
706.917	6.6577
712.99	13.0278
719.064	29.7668
725.137	23.2328
731.21	20.0068
737.284	22.4127
743.357	27.0292
749.431	29.6692
755.504	34.5112
761.577	28.824
767.651	36.9015
773.724	20.9139
779.798	25.7293
785.871	39.6864
791.944	31.3658
798.018	44.9174
804.091	40.2363
810.164	44.8973
816.238	47.7994
822.311	46.4028
828.385	51.2892
834.458	49.6155
840.531	47.933
846.605	54.0289
852.678	60.5201
858.752	49.2215
864.825	37.6713
870.898	36.0588
876.972	22.4066
883.045	29.8902
889.119	21.1652
895.192	14.0545
901.265	5.033
907.339	2.13758
913.412	0.547852
919.485	2.61796
925.559	-2.5883
931.632	1.17324
937.706	-1.48789
943.779	-9.58759
949.852	-7.46862
955.926	-12.8016
961.999	-8.64812
968.073	-13.4417
974.146	-29.6402
980.219	-29.1596
986.293	-29.3616
992.366	-37.2459
998.439	-34.0642
1004.51	-43.1379
1010.59	-38.4725
1016.66	-40.2306
1022.73	-33.2188
1028.81	-28.5884
1034.88	-39.3833
1040.95	-30.5256
1047.03	-39.1021
1053.1	-32.6963
1059.17	-34.167
1065.25	-34.9876
1071.32	-32.3214
1077.39	-29.3297
1083.47	-26.8996
1089.54	-23.8144
1095.61	-23.1127
1101.69	-23.337
1107.76	-20.4811
1113.83	-13.807
1119.91	-20.6021
1125.98	-18.1162
1132.05	-10.7142
1138.13	-6.0362
1144.2	-14.5051
1150.27	-11.119
1156.35	-8.55383
1162.42	-11.3859
1168.49	-6.0997
1174.57	-2.68005
1180.64	-0.724273
1186.71	2.09854
1192.79	-12.7991
1198.86	4.00024
1204.93	1.27258
1211.01	2.73151
1217.08	9.84317
1223.15	32.2195
1229.23	42.4492
1235.3	47.8723
1241.375	64.2315
1247.45	81.7944
1253.52	77.7538
1259.6	122.755
1265.67	104.425
1271.74	173.452
1277.82	206.917
1283.89	260.827
1289.96	301.246
1296.04	352.265
1302.11	433.036
1308.18	516.043
1314.26	610.376
1320.33	702.415
1326.4	884.726
1332.48	960.371
1338.55	1134.47
1344.62	1159.09
1350.7	1188.11
1356.77	1128.64
1362.84	1009.07
1368.92	881.953
1374.99	740.362
1381.06	632.199
1387.14	516.142
1393.21	427.692
1399.28	362.832
1405.36	277.562
1411.43	211.049
1417.5	171.641
1423.58	142.968
1429.65	107.786
1435.72	92.9901
1441.8	59.5966
1447.87	55.5769
1453.94	38.8203
1460.02	39.0218
1466.09	11.961
1472.16	0.76911
1478.24	12.0433
1484.31	29.5377
1490.38	19.7189
1496.46	52.9675
1502.53	50.6683
1508.6	80.9335
1514.68	120.051
1520.75	140.036
1526.82	182.428
1532.9	220.825
1538.97	277.543
1545.04	350.416
1551.12	459.698
1557.19	570.352
1563.26	678.479
1569.34	864.106
1575.41	978.13
1581.48	1117.93
1587.56	1252.16
1593.63	1277.46
1599.7	1297.15
1605.78	1251.97
1611.85	1174.65
1617.92	1078.61
1624	969.456
1630.07	797.853
1636.15	634.549
1642.22	469.268
1648.29	313.307
1654.37	235.067
1660.44	166.213
1666.51	108.199
1672.59	65.7872
1678.66	35.0725
1684.73	7.99144
1690.81	0.569714
1696.88	-6.34065
1702.95	-2.81242
1709.03	-3.07266
1715.1	2.47778
1721.17	0.273811
1727.25	-7.52672
1733.32	-3.6832
1739.39	4.84963
1745.47	-6.5994
1751.54	-0.864336
1757.61	-2.91823
1763.69	-2.56811
1769.76	-3.75431
1775.83	-5.38867
1781.91	-2.54249
1787.98	3.6491
1794.05	-3.8487
1800.13	7.76015
1806.2	-2.46645
1812.27	-8.63988
1818.35	-2.60483
1824.42	-11.732
1830.49	4.87984
1836.57	1.71012
1842.64	-4.25439
1848.71	3.31088
1854.79	-1.30826
1860.86	4.02535
1866.93	-0.695423
1873.01	-4.65596
1879.08	-2.98841
1885.15	-7.55001
1891.23	-6.954
1897.3	-3.09405
1903.37	1.30614
1909.45	3.86011
1915.52	-2.12349
1921.59	4.49292
1927.67	-2.70141
1933.74	-4.64344
1939.81	-1.45505
1945.89	-0.940605
1951.96	-3.61115
1958.03	2.89051
1964.11	3.91262
1970.18	-5.34103
1976.25	0.708664
1982.33	-0.663559
1988.4	0.505966
1994.47	-2.07285
2000.55	-0.190887
2006.62	-1.82246
2012.7	-2.56107
2018.77	9.94199
2024.84	4.49117
2030.92	6.14973
2036.99	2.91341
2043.06	3.05276
2049.14	-3.59547
2055.21	-0.421097
2061.28	4.72406
2067.36	7.06042
2073.43	1.8289
2079.5	3.75366
2085.58	0.00813293
2091.65	0.247543
2097.72	3.03984
2100	-0.978218

File: Al batch 16 - top.txt
300	-25.2141
306.073	-20.2649
312.147	-16.5665
318.22	-32.025
324.294	-18.2258
330.367	-19.8897
336.44	-12.474
342.514	-15.0956
348.587	-22.0557
354.66	-4.04604
360.734	-15.6357
366.807	-17.5379
372.881	-11.3496
378.954	-17.1473
385.027	-18.8696
391.101	-11.5557
397.174	-5.02188
403.248	-16.7138
409.321	3.99376
415.394	-3.2811
421.468	-8.05826
427.541	-3.82292
433.615	-6.71668
439.688	-7.9831
445.761	1.90128
451.835	-10.481
457.908	3.77935
463.981	0.98952
470.055	-4.48681
476.128	-1.52158
482.202	-1.79884
488.275	6.02062
494.348	-1.77847
500.422	-1.87377
506.495	-5.48024
512.569	-3.32908
518.642	-0.157874
524.715	0.291102
530.789	2.24029
536.862	-4.53808
542.935	2.95074
549.009	8.97167
555.082	0.225168
561.156	-0.702578
567.229	-0.43908
573.302	4.04389
579.376	11.3543
585.449	12.5651
591.523	2.9979
597.596	10.6271
603.669	5.71482
609.743	6.28229
615.816	6.79129
621.89	5.86716
627.963	1.4954
634.036	12.3345
640.11	9.49795
646.183	25.6653
652.256	6.07863
658.33	12.9194
664.403	10.4042
670.477	19.6451
676.55	16.3822
682.623	17.4895
688.697	15.9562
694.77	19.0507
700.844	14.505
706.917	9.23002
712.99	9.50515
719.064	20.5987
725.137	17.1625
731.21	31.0012
737.284	30.043
743.357	31.773
749.431	28.7074
755.504	41.7608
761.577	33.5558
767.651	33.6497
773.724	42.5506
779.798	45.0193
785.871	46.9867
791.944	38.1416
798.018	49.6119
804.091	46.86
810.164	48.9967
816.238	51.0164
822.311	42.1898
828.385	51.0264
834.458	49.847
840.531	58.9941
846.605	57.2314
852.678	55.8994
858.752	48.9771
864.825	54.7664
870.898	40.6303
876.972	35.6907
883.045	35.2431
889.119	29.9071
895.192	17.0453
901.265	8.36092
907.339	16.8937
913.412	7.90637
919.485	9.81194
925.559	14.1054
931.632	8.03283
937.706	17.9314
943.779	6.86922
949.852	14.5315
955.926	1.47671
961.999	13.2514
968.073	-0.976954
974.146	1.98216
980.219	-6.45866
986.293	-1.51809
992.366	-5.6104
998.439	-2.61612
1004.51	3.84825
1010.59	-17.9416
1016.66	2.56645
1022.73	4.71626
1028.81	13.0834
1034.88	9.20183
1040.95	18.8828
1047.03	8.55571
1053.1	-0.624268
1059.17	-9.2873
1065.25	13.7083
1071.32	5.93436
1077.39	0.0597487
1083.47	1.83254
1089.54	3.64855
1095.61	12.8695
1101.69	13.5887
1107.76	7.71094
1113.83	13.2603
1119.91	3.02843
1125.98	9.58745
1132.05	26.6719
1138.13	16.6429
1144.2	30.1842
1150.27	39.9366
1156.35	35.3397
1162.42	44.8269
1168.49	32.725
1174.57	55.6083
1180.64	41.4739
1186.71	33.8297
1192.79	28.4872
1198.86	45.5942
1204.93	57.8291
1211.01	53.7767
1217.08	66.1965
1223.15	69.7887
1229.23	97.7342
1235.3	94.5992
1241.375	112.081
1247.45	121.389
1253.52	144.01
1259.6	162.487
1265.67	214.282
1271.74	224.049
1277.82	248.95
1283.89	303.674
1289.96	343.307
1296.04	408.221
1302.11	428.972
1308.18	544.679
1314.26	640.896
1320.33	727.943
1326.4	831.588
1332.48	882.756
1338.55	963.953
1344.62	984.941
1350.7	940.377
1356.77	885.104
1362.84	826.669
1368.92	722.892
1374.99	630.431
1381.06	543.785
1387.14	445.949
1393.21	400.1
1399.28	306.266
1405.36	263.531
1411.43	225.065
1417.5	189.107
1423.58	150.118
1429.65	105.279
1435.72	106.326
1441.8	76.5095
1447.87	50.8608
1453.94	31.8124
1460.02	28.7656
1466.09	2.2686
1472.16	14.9061
1478.24	21.8438
1484.31	-9.91716
1490.38	-0.52042
1496.46	12.6598
1502.53	9.54806
1508.6	24.1931
1514.68	22.8857
1520.75	78.6797
1526.82	99.8107
1532.9	149.406
1538.97	187.877
1545.04	234.558
1551.12	330.173
1557.19	432.6
1563.26	496.739
1569.34	591.251
1575.41	698.921
1581.48	791.162
1587.56	879.739
1593.63	924.376
1599.7	930.019
1605.78	916.815
1611.85	887.238
1617.92	775.873
1624	666.597
1630.07	519.065
1636.15	416.525
1642.22	320.3
1648.29	238.89
1654.37	164.209
1660.44	111.102
1666.51	77.1339
1672.59	34.7298
1678.66	20.0377
1684.73	2.47424
1690.81	2.11203
1696.88	-9.30539
1702.95	2.5014
1709.03	8.23135
1715.1	-2.70541
1721.17	-4.80768
1727.25	-1.96115
1733.32	-1.45549
1739.39	4.10567
1745.47	2.99735
1751.54	8.90975
1757.61	7.25025
1763.69	11.5974
1769.76	7.75534
1775.83	12.0659
1781.91	16.8861
1787.98	8.43333
1794.05	12.3903
1800.13	7.53718
1806.2	14.0095
1812.27	3.75045
1818.35	15.0929
1824.42	9.47295
1830.49	10.5316
1836.57	13.6239
1842.64	15.0884
1848.71	16.4787
1854.79	10.8417
1860.86	5.55442
1866.93	1.46136
1873.01	-0.550842
1879.08	11.5768
1885.15	11.4855
1891.23	-0.269636
1897.3	3.84325
1903.37	18.6449
1909.45	3.02259
1915.52	6.22409
1921.59	21.2437
1927.67	5.09492
1933.74	8.12509
1939.81	7.17997
1945.89	12.7749
1951.96	2.59992
1958.03	7.61323
1964.11	17.1756
1970.18	12.4181
1976.25	10.0682
1982.33	7.47803
1988.4	13.9653
1994.47	7.64136
2000.55	12.9795
2006.62	12.8866
2012.7	14.0115
2018.77	14.868
2024.84	16.9341
2030.92	8.23245
2036.99	10.0851
2043.06	19.0208
2049.14	7.60134
2055.21	3.36684
2061.28	5.9441
2067.36	13.0534
2073.43	5.8826
2079.5	19.3893
2085.58	14.0252
2091.65	14.6722
2097.72	13.0686
2100	9.81197