Folder: Graphs/Example Data/Raman/CNT - TIM/Raytheon/Al foil/2010/08-27-10

Note: README.md
# Graphs
A macOS app that manages the organization of data files and graphs them.

Licensed under the MIT licensing terms: https://opensource.org/licenses/MIT

Hildreth wrote the precursor to Graphs, then called GraphBase, during his Ph.D. to help manage the data he was collecting as part of his research on Metal-assisted Chemical Etching of Silicon.  He was becoming overwhelmed by the hundreds of data files he was collecting every week and was inspired by the Papers and iTunes applications on OS X (now macOS) to create an application that managed data.  GraphBase provided an easy template to create a parser, a simple UI to organize data into hiarchical folders, and leveraged the DataGraph framework (http://www.visualdatatools.com/DataGraph/Framework/) for graphing.  DataGraph (http://www.visualdatatools.com/DataGraph/) is an amazing 2D graphing application and you will need to purchase a DataGraph license from Visual Data Tools in order to use Graphs.

Graphs is a rewrite of GraphBase in Swift written by Connor and then re-written again by Hildreth that has been open sourced for use by all.  Please not that you will need a DataGraph license to create the graph templates used by the DataGraph framework underlying Graphs.  Hildreth plans to continue evolving this application.  The next plan improvements are: multithreading for import and parsing using the new Results type in Swift; and begin switching over to SwiftUI for the UI.  Long term, we hope to add support for data analysis and extraction.

# Overview
Graphs is a data management tool that allows you to store your raw data files in a text formate (CSV, tab delimited, etc.) and then have those files parsed and graphed when selected.  Graphs uses the DataGraph fromework 

To use Graphs, first you create an example graph, what we call a Graph Template, in DataGraph.  Format the graph the way you want it to look and make sure that the Data Columns are in the same order as the columns in your data.  Next, you  add your "Graph Template" to Graphs using either the Graph Template Inspector on the right side of Graphs using using the "+" sign on the bottom left of the application.  You can also drag-and-drop the file onto a folder in the Source List.  Once you add a Graph Template, you can assign it to be the default Graph Template for a folder and any sub-folders using the Folder Inspector.

The second step is to make a Paser using the Parser Inspector.  It might be helpful to have an example file already in Graphs (see Step 3) because you can use the Text Inspector to see what lines your Experimental Details, Header, and Data start at.  Add a Parse Template using the + sign in the Parse Inspector's table and give the Parse Template a name.  If your data has experimental details at the top, then select the checkbox and set the starting and ending lines for this information.  If your data has a Header, select the Header checkbox, give it starting and ending line numbers, and then select the type of s

File: 19 - bottom_1.txt
400	18.9989
406.069	25.1772
412.138	18.7942
418.208	23.82
424.277	23.7871
430.346	22.4387
436.415	18.1751
442.485	17.3216
448.554	16.4487
454.623	18.4603
460.692	19.0687
466.762	16.3495
472.831	16.4845
478.9	16.8526
484.969	14.1998
491.038	8.02988
497.108	8.91506
503.177	4.0873
509.246	4.73442
515.315	5.00488
521.385	1.75249
527.454	9.04195
533.523	6.48804
539.592	3.79712
545.661	0.210887
551.731	-0.553086
557.8	6.32646
563.869	3.51503
569.938	2.02488
576.008	3.40569
582.077	9.34999
588.146	1.15549
594.215	2.24474
600.284	-1.50356
606.354	-0.936104
612.423	-0.0580754
618.492	3.62234
624.561	-0.600968
630.631	-9.80231
636.7	2.97842
642.769	1.8378
648.838	-3.1583
654.908	-3.15867
660.977	-2.45734
667.046	-0.402448
673.115	-0.138363
679.184	1.13622
685.254	-1.49419
691.323	-4.8739
697.392	-1.51975
703.461	5.13511
709.531	4.50619
715.6	-7.90016
721.669	-0.298009
727.738	1.58214
733.807	9.89382
739.877	0.0626121
745.946	7.18815
752.015	7.92535
758.084	9.07065
764.154	13.6818
770.223	10.2865
776.292	5.81776
782.361	14.1113
788.431	12.0078
794.5	11.3832
800.569	14.0391
806.638	10.6463
812.707	5.56184
818.777	12.7001
824.846	12.5783
830.915	13.2284
836.984	16.015
843.054	18.9912
849.123	14.4958
855.192	20.0872
861.261	8.11507
867.331	15.9753
873.4	10.9275
879.469	7.83185
885.538	8.75246
891.607	7.57391
897.677	1.05972
903.746	4.07696
909.815	-0.176647
915.884	-3.25828
921.954	1.46336
928.023	-6.26771
934.092	-3.03722
940.161	-4.78123
946.23	-1.18793
952.3	-1.43338
958.369	2.64304
964.438	3.45933
970.507	1.4083
976.577	-2.27192
982.646	1.87815
988.715	0.631192
994.784	-5.58142
1000.85	-1.85587
1006.92	-2.53362
1012.99	-3.9764
1019.06	3.89549
1025.13	-1.50918
1031.2	1.09356
1037.27	4.0717
1043.34	-4.11886
1049.41	-1.81204
1055.48	3.71381
1061.55	1.90465
1067.61	-0.010426
1073.68	4.73483
1079.75	-2.92417
1085.82	2.06208
1091.89	-0.739783
1097.96	-5.67059
1104.03	-4.78993
1110.1	-4.11424
1116.17	2.43165
1122.24	5.38166
1128.31	1.88394
1134.38	14.2249
1140.45	19.9651
1146.51	29.6122
1152.58	28.0038
1158.65	36.5211
1164.72	37.3454
1170.79	46.8607
1176.86	36.6986
1182.93	37.9408
1189	47.1137
1195.07	41.7596
1201.14	49.3221
1207.21	46.5808
1213.28	53.2711
1219.35	51.0214
1225.41	54.8713
1231.48	62.2975
1237.55	68.5576
1243.62	80.4764
1249.69	81.2794
1255.76	90.3285
1261.83	102.549
1267.9	114.297
1273.97	136.067
1280.04	151.656
1286.11	160.93
1292.18	176.098
1298.25	194.032
1304.31	236.941
1310.38	268.838
1316.45	310.341
1322.52	298.224
1328.59	335.712
1334.66	362.531
1340.73	365.887
1346.8	356.237
1352.87	347.677
1358.94	324.684
1365.01	300.05
1371.08	282.403
1377.15	251.563
1383.21	217.612
1389.28	182.552
1395.35	157.106
1401.42	136.186
1407.49	84.3584
1413.56	90.8864
1419.63	76.0748
1425.7	64.0566
1431.77	48.3519
1437.84	46.4727
1443.91	27.6583
1449.98	13.4665
1456.05	12.3119
1462.11	2.18497
1468.18	13.7833
1474.25	-6.06785
1480.32	-13.1796
1486.39	-6.63516
1492.46	4.15568
1498.53	0.666484
1504.6	-8.59062
1510.67	-1.98161
1516.74	19.9734
1522.81	24.2777
1528.88	43.2786
1534.95	51.1255
1541.01	77.8982
1547.08	76.8083
1553.15	110.413
1559.22	136.605
1565.29	180.728
1571.36	220.206
1577.43	267.708
1583.5	307.843
1589.57	354.853
1595.64	415.68
1601.71	443.096
1607.78	426.695
1613.85	396.515
1619.91	333.073
1625.98	268.527
1632.05	192.342
1638.12	148.722
1644.19	116.754
1650.26	82.7528
1656.33	51.115
1662.4	37.6375
1668.47	15.0095
1674.54	2.90724
1680.61	-4.18502
1686.68	-9.15935
1692.75	-9.41142
1698.81	-7.35788
1704.88	-5.85216
1710.95	-2.01964
1717.02	-5.60413
1723.09	-6.7606
1729.16	-2.30605
1735.23	-0.787281
1741.3	-1.95936
1747.37	4.59474
1753.44	2.17227
1759.51	3.37394
1765.58	2.28934
1771.65	2.93711
1777.71	6.46982
1783.78	5.2811
1789.85	2.20248
1795.92	6.32817
1801.99	5.1754
1808.06	5.39762
1814.13	3.05803
1820.2	3.28508
1826.27	0.116644
1832.34	5.51095
1838.41	0.550525
1844.48	-1.64809
1850.55	2.13108
1856.61	0.917359
1862.68	1.98418
1868.75	-1.73764
1874.82	1.80424
1880.89	-0.537859
1886.96	-0.980139
1893.03	-5.50679
1899.1	-3.86732
1905.17	-0.62485
1911.24	-2.83288
1917.31	2.04666
1923.38	0.182001
1929.45	-0.446391
1935.51	-2.36616
1941.58	2.77083
1947.65	3.30078
1953.72	-1.36549
1959.79	6.45442
1965.86	1.24
1971.93	7.21131
1978	1.73081
1984.07	3.438
1990.14	2.88292
1996.21	4.85934
2000	0.354219

File: 19 - top_2.txt
400	15.3036
406.069	19.7354
412.138	21.3942
418.208	17.2714
424.277	16.439
430.346	20.3843
436.415	13.3549
442.485	17.8218
448.554	18.7132
454.623	15.1128
460.692	13.2363
466.762	8.8762
472.831	12.3226
478.9	3.84156
484.969	14.2639
491.038	10.1899
497.108	6.94149
503.177	5.14992
509.246	2.79284
515.315	-1.61731
521.385	3.68872
527.454	-0.716449
533.523	-0.926151
539.592	-0.139032
545.661	-5.8242
551.731	-3.8196
557.8	-6.77402
563.869	-1.73356
569.938	1.6584
576.008	-2.43093
582.077	0.638738
588.146	3.28282
594.215	-0.790764
600.284	1.2447
606.354	-3.69717
612.423	-3.38932
618.492	-3.10355
624.561	-0.406119
630.631	-9.46256
636.7	-0.512947
642.769	1.35987
648.838	-1.21703
654.908	-1.52253
660.977	-0.394738
667.046	-3.68198
673.115	-7.00747
679.184	-4.68054
685.254	-3.75624
691.323	-0.874587
697.392	1.71088
703.461	-0.0158828
709.531	-3.28447
715.6	-2.32773
721.669	1.05947
727.738	3.22555
733.807	-6.27592
739.877	-0.488759
745.946	4.98941
752.015	4.98968
758.084	1.01723
764.154	2.29049
770.223	-1.45701
776.292	4.94651
782.361	6.68501
788.431	-2.75841
794.5	7.22557
800.569	10.5629
806.638	2.23861
812.707	7.15599
818.777	11.071
824.846	11.2767
830.915	6.54515
836.984	6.26438
843.054	6.07868
849.123	1.44284
855.192	9.10412
861.261	-0.00863498
867.331	3.69605
873.4	-2.53404
879.469	-4.39149
885.538	-0.680316
891.607	-13.6343
897.677	0.790205
903.746	-7.47582
909.815	-11.2603
915.884	-11.2796
921.954	-6.64577
928.023	-12.3291
934.092	-9.13237
940.161	-12.5547
946.23	-13.7313
952.3	-9.85929
958.369	-15.9937
964.438	-8.90138
970.507	-8.70016
976.577	-8.80219
982.646	-0.513861
988.715	2.9606
994.784	6.27344
1000.85	-1.11322
1006.92	3.39794
1012.99	5.54244
1019.06	-0.63298
1025.13	7.90702
1031.2	-1.12941
1037.27	-0.708906
1043.34	2.3976
1049.41	5.44429
1055.48	2.4559
1061.55	6.6817
1067.61	-1.11404
1073.68	-1.32652
1079.75	-10.5441
1085.82	0.273148
1091.89	-6.06543
1097.96	-1.7029
1104.03	-3.84683
1110.1	3.82464
1116.17	-0.836772
1122.24	-3.2536
1128.31	-0.155154
1134.38	-3.71648
1140.45	9.7736
1146.51	22.0325
1152.58	21.3738
1158.65	19.8079
1164.72	21.4991
1170.79	23.7208
1176.86	25.5235
1182.93	28.1845
1189	29.0719
1195.07	34.6981
1201.14	35.0251
1207.21	34.4346
1213.28	42.1458
1219.35	39.3449
1225.41	42.915
1231.48	56.7396
1237.55	66.1814
1243.62	52.8523
1249.69	82.8845
1255.76	78.4373
1261.83	95.9779
1267.9	116.159
1273.97	134.048
1280.04	162.384
1286.11	179.461
1292.18	193.003
1298.25	239.37
1304.31	271.825
1310.38	308.797
1316.45	339.315
1322.52	375.663
1328.59	437.916
1334.66	456.394
1340.73	500.247
1346.8	500.122
1352.87	522.573
1358.94	461.863
1365.01	441.45
1371.08	404.643
1377.15	343.226
1383.21	290.402
1389.28	252.954
1395.35	210.748
1401.42	186.722
1407.49	143.483
1413.56	120.137
1419.63	95.5071
1425.7	87.4099
1431.77	64.2999
1437.84	46.8645
1443.91	43.8739
1449.98	23.5401
1456.05	27.9935
1462.11	19.437
1468.18	14.6568
1474.25	-6.91579
1480.32	4.19385
1486.39	-3.27297
1492.46	9.39265
1498.53	-5.69859
1504.6	4.08339
1510.67	35.3172
1516.74	39.6594
1522.81	60.6569
1528.88	62.0003
1534.95	91.0673
1541.01	104.867
1547.08	145.719
1553.15	174.001
1559.22	214.197
1565.29	267.163
1571.36	332.443
1577.43	380.608
1583.5	447.549
1589.57	478.238
1595.64	520.07
1601.71	540.176
1607.78	532.499
1613.85	495.022
1619.91	458.901
1625.98	379.488
1632.05	307.689
1638.12	235.581
1644.19	191.684
1650.26	141.353
1656.33	101.437
1662.4	68.243
1668.47	42.9506
1674.54	29.8578
1680.61	11.789
1686.68	5.1383
1692.75	0.0204995
1698.81	-1.04709
1704.88	5.63385
1710.95	-0.805843
1717.02	2.20939
1723.09	4.63617
1729.16	4.81817
1735.23	3.18356
1741.3	4.00891
1747.37	2.93957
1753.44	5.49759
1759.51	3.77142
1765.58	4.53117
1771.65	2.59081
1777.71	-2.75329
1783.78	-5.80628
1789.85	-2.73925
1795.92	-5.16495
1801.99	-9.60741
1808.06	-10.1447
1814.13	-7.88783
1820.2	-4.78679
1826.27	-7.95334
1832.34	-6.57975
1838.41	-3.3932
1844.48	-7.31767
1850.55	-9.20431
1856.61	-9.21269
1862.68	-7.39939
1868.75	-4.53866
1874.82	-10.5695
1880.89	-5.74485
1886.96	-12.7731
1893.03	-5.04808
1899.1	-11.0113
1905.17	-7.00261
1911.24	-3.9279
1917.31	-5.05383
1923.38	-6.95155
1929.45	-7.16247
1935.51	-8.60189
1941.58	-4.63642
1947.65	-2.35203
1953.72	-3.07255
1959.79	4.60903
1965.86	-9.15813
1971.93	-6.5181
1978	-8.18569
1984.07	-0.96582
1990.14	-10.156
1996.21	-8.26134
2000	-14.4123

File: 20 - top_1.txt
400	-11.1539
406.069	-2.69721
412.138	3.31963
418.208	-3.17372
424.277	-0.0401514
430.346	0.067331
436.415	-0.826541
442.485	9.58593e-05
448.554	-1.04753
454.623	-1.35287
460.692	-1.35655
466.762	-2.11824
472.831	-1.78793
478.9	-6.50913
484.969	-5.12098
491.038	-7.07247
497.108	-6.61872
503.177	-4.71679
509.246	-10.1736
515.315	-5.22464
521.385	-7.73595
527.454	0.391445
533.523	-3.52267
539.592	-10.1784
545.661	-15.6597
551.731	-19.495
557.8	-8.18179
563.869	-10.8446
569.938	-2.59628
576.008	-6.79929
582.077	-11.6535
588.146	-7.6394
594.215	-3.67522
600.284	-10.9606
606.354	-8.12772
612.423	-8.28383
618.492	-6.26156
624.561	-2.79494
630.631	-3.89675
636.7	-2.82088
642.769	-0.78369
648.838	-2.18243
654.908	-0.0898452
660.977	-3.51105
667.046	-3.70759
673.115	-2.5188
679.184	0.210701
685.254	-2.8093
691.323	-3.35297
697.392	0.571989
703.461	-6.31433
709.531	-2.04381
715.6	-0.394862
721.669	-5.55964
727.738	-2.67008
733.807	2.10534
739.877	2.55394
745.946	3.87097
752.015	1.89019
758.084	1.33628
764.154	13.3921
770.223	3.52376
776.292	9.19845
782.361	11.8651
788.431	2.88123
794.5	8.55248
800.569	6.99571
806.638	10.0224
812.707	13.8006
818.777	9.18197
824.846	11.3509
830.915	10.9325
836.984	20.7661
843.054	12.6638
849.123	8.67612
855.192	13.8168
861.261	7.64897
867.331	6.92027
873.4	0.00351311
879.469	6.12539
885.538	4.61498
891.607	1.59515
897.677	3.48515
903.746	6.96125
909.815	6.85635
915.884	0.514349
921.954	-0.949096
928.023	3.16562
934.092	2.85601
940.161	1.03386
946.23	0.673706
952.3	4.27572
958.369	-2.5548
964.438	-11.8037
970.507	-4.43118
976.577	-3.09019
982.646	-2.8785
988.715	-2.99505
994.784	-1.26717
1000.85	-6.58356
1006.92	-3.83481
1012.99	2.7026
1019.06	-3.54783
1025.13	-3.13619
1031.2	2.27369
1037.27	-7.22742
1043.34	5.5643
1049.41	-3.03026
1055.48	-6.4195
1061.55	2.89799
1067.61	-6.22734
1073.68	-3.46648
1079.75	-1.34485
1085.82	2.11334
1091.89	1.16786
1097.96	1.52342
1104.03	-4.1114
1110.1	7.85198
1116.17	5.07553
1122.24	6.10379
1128.31	4.04124
1134.38	15.225
1140.45	9.38385
1146.51	17.8323
1152.58	24.3543
1158.65	30.3881
1164.72	33.1558
1170.79	25.8257
1176.86	23.9277
1182.93	37.3985
1189	33.9162
1195.07	37.1436
1201.14	29.5755
1207.21	46.0228
1213.28	40.8153
1219.35	37.31
1225.41	31.975
1231.48	38.7455
1237.55	51.2853
1243.62	60.682
1249.69	56.2313
1255.76	76.993
1261.83	88.1157
1267.9	79.8256
1273.97	94.7002
1280.04	113.465
1286.11	130.967
1292.18	146.06
1298.25	154.052
1304.31	183.541
1310.38	208.917
1316.45	249.125
1322.52	279.015
1328.59	312.214
1334.66	306.379
1340.73	351.076
1346.8	342.463
1352.87	369.985
1358.94	339.846
1365.01	305.213
1371.08	260.405
1377.15	246.737
1383.21	214.504
1389.28	178.102
1395.35	156.897
1401.42	129.566
1407.49	102.872
1413.56	83.5327
1419.63	72.0401
1425.7	55.0594
1431.77	46.7117
1437.84	51.0767
1443.91	35.0242
1449.98	13.2445
1456.05	8.44447
1462.11	11.2418
1468.18	6.93887
1474.25	-12.7775
1480.32	10.9994
1486.39	-3.52076
1492.46	20.5594
1498.53	19.3111
1504.6	21.8261
1510.67	22.3788
1516.74	43.2751
1522.81	37.6767
1528.88	56.502
1534.95	70.1071
1541.01	90.0959
1547.08	103.369
1553.15	122.839
1559.22	154.881
1565.29	188.363
1571.36	223.222
1577.43	248.761
1583.5	291.318
1589.57	322.359
1595.64	366.978
1601.71	371.063
1607.78	367.524
1613.85	353.551
1619.91	310.315
1625.98	266.082
1632.05	222.27
1638.12	162.988
1644.19	134.895
1650.26	96.0578
1656.33	69.6654
1662.4	51.351
1668.47	33.756
1674.54	26.6924
1680.61	6.74865
1686.68	6.0678
1692.75	-0.110205
1698.81	-1.64546
1704.88	-0.193928
1710.95	-0.00917109
1717.02	1.25372
1723.09	1.45194
1729.16	0.567906
1735.23	-3.86591
1741.3	-2.74033
1747.37	-3.6344
1753.44	-1.04151
1759.51	-2.79725
1765.58	-3.16992
1771.65	0.510226
1777.71	-3.67629
1783.78	-1.96131
1789.85	3.17833
1795.92	1.03453
1801.99	1.94969
1808.06	-1.71918
1814.13	3.81576
1820.2	0.425484
1826.27	-1.35832
1832.34	1.73423
1838.41	3.02772
1844.48	0.684627
1850.55	1.52386
1856.61	-0.684209
1862.68	-7.82961
1868.75	0.513869
1874.82	-0.396173
1880.89	-2.18803
1886.96	-0.469477
1893.03	-5.65075
1899.1	-6.46981
1905.17	-3.55318
1911.24	0.279912
1917.31	-3.15244
1923.38	-5.81559
1929.45	-6.14663
1935.51	-5.08357
1941.58	-4.08867
1947.65	-3.54748
1953.72	-5.06165
1959.79	-7.82202
1965.86	-6.73874
1971.93	-8.16759
1978	-5.54997
1984.07	-4.88809
1990.14	-5.85861
1996.21	-2.52008
2000	-6.83463

File: 22 - bottom.txt
400	14.0782
406.069	10.2862
412.138	6.91773
418.208	6.19909
424.277	5.28102
430.346	11.9301
436.415	9.98033
442.485	7.38259
448.554	9.67866
454.623	8.19853
460.692	2.23044
466.762	0.308544
472.831	4.93131
478.9	4.88207
484.969	11.8431
491.038	-1.48693
497.108	-0.496088
503.177	-4.71313
509.246	-7.30169
515.315	-3.00081
521.385	-8.73509
527.454	-3.85244
533.523	-0.709384
539.592	-4.13554
545.661	-4.05447
551.731	-3.65811
557.8	-4.13265
563.869	-1.48303
569.938	-3.32491
576.008	1.22122
582.077	-2.10181
588.146	1.43306
594.215	-0.982734
600.284	-5.32845
606.354	2.17909
612.423	-1.51815
618.492	2.41745
624.561	-1.41063
630.631	0.286316
636.7	1.62945
642.769	-1.55645
648.838	-1.5383
654.908	5.35
660.977	2.99049
667.046	4.8851
673.115	3.37128
679.184	5.7014
685.254	5.82301
691.323	-2.09287
697.392	6.00167
703.461	3.80996
709.531	3.75338
715.6	2.76789
721.669	4.44572
727.738	3.13081
733.807	3.24949
739.877	5.58404
745.946	1.74318
752.015	12.0591
758.084	8.30282
764.154	5.08924
770.223	9.66443
776.292	7.29153
782.361	7.75696
788.431	7.78887
794.5	12.4298
800.569	11.0955
806.638	14.0581
812.707	17.1641
818.777	9.2066
824.846	21.7644
830.915	17.2449
836.984	11.2652
843.054	13.7693
849.123	21.5902
855.192	15.9319
861.261	20.9478
867.331	17.7767
873.4	11.6846
879.469	8.60679
885.538	8.85842
891.607	9.01029
897.677	11.1738
903.746	8.74833
909.815	1.91408
915.884	6.13612
921.954	3.30736
928.023	1.08732
934.092	8.64784
940.161	-0.332618
946.23	-5.37591
952.3	-0.35632
958.369	-0.929701
964.438	0.799806
970.507	-0.305323
976.577	0.719782
982.646	-2.97162
988.715	4.26344
994.784	-1.09141
1000.85	-0.0766786
1006.92	-6.22981
1012.99	1.87312
1019.06	1.99297
1025.13	1.0269
1031.2	3.44794
1037.27	2.62344
1043.34	5.44113
1049.41	3.86079
1055.48	-2.32205
1061.55	-6.3706
1067.61	1.0614
1073.68	2.26734
1079.75	-1.25233
1085.82	-3.5533
1091.89	-2.0486
1097.96	-0.971246
1104.03	4.07276
1110.1	4.8738
1116.17	4.44984
1122.24	7.72114
1128.31	-0.377948
1134.38	9.75235
1140.45	15.8891
1146.51	25.2598
1152.58	28.9551
1158.65	34.9709
1164.72	35.335
1170.79	44.2048
1176.86	47.4149
1182.93	39.3096
1189	46.6157
1195.07	48.773
1201.14	47.5292
1207.21	46.9654
1213.28	49.3352
1219.35	60.5093
1225.41	55.3183
1231.48	58.169
1237.55	66.885
1243.62	66.4429
1249.69	79.8265
1255.76	87.1786
1261.83	91.836
1267.9	97.6948
1273.97	105.498
1280.04	122.01
1286.11	137.23
1292.18	154.792
1298.25	179.831
1304.31	191.96
1310.38	217.876
1316.45	245.722
1322.52	254.352
1328.59	273.273
1334.66	264.914
1340.73	271.579
1346.8	285.763
1352.87	264.648
1358.94	263.542
1365.01	244.777
1371.08	216.513
1377.15	201.878
1383.21	165.347
1389.28	157.732
1395.35	128.449
1401.42	104.297
1407.49	86.753
1413.56	65.0589
1419.63	65.7877
1425.7	48.4529
1431.77	42.1059
1437.84	27.162
1443.91	12.2668
1449.98	14.9581
1456.05	9.8702
1462.11	2.14293
1468.18	7.94196
1474.25	8.55124
1480.32	10.3106
1486.39	0.754333
1492.46	3.77408
1498.53	-11.9566
1504.6	18.3883
1510.67	1.74054
1516.74	10.234
1522.81	22.4299
1528.88	42.8837
1534.95	38.9062
1541.01	50.0425
1547.08	74.7468
1553.15	105.294
1559.22	118.574
1565.29	146.373
1571.36	182.305
1577.43	213.851
1583.5	258.066
1589.57	293.446
1595.64	325.958
1601.71	310.085
1607.78	331.839
1613.85	308.01
1619.91	270.45
1625.98	209.524
1632.05	155.6
1638.12	118.24
1644.19	94.9766
1650.26	71.4198
1656.33	49.0171
1662.4	35.1354
1668.47	18.4391
1674.54	6.08184
1680.61	-0.398659
1686.68	0.0327277
1692.75	-4.27696
1698.81	-4.68991
1704.88	2.94271
1710.95	2.38795
1717.02	3.68542
1723.09	2.99822
1729.16	2.24956
1735.23	0.762795
1741.3	0.634191
1747.37	-0.498018
1753.44	3.66498
1759.51	1.04979
1765.58	4.52269
1771.65	5.38153
1777.71	3.32703
1783.78	3.87945
1789.85	6.64909
1795.92	3.65892
1801.99	3.93998
1808.06	4.15704
1814.13	2.70844
1820.2	3.4821
1826.27	4.59073
1832.34	7.41423
1838.41	0.125011
1844.48	1.49769
1850.55	5.42904
1856.61	9.32247
1862.68	5.10451
1868.75	2.53211
1874.82	4.2997
1880.89	1.01377
1886.96	1.46158
1893.03	6.24503
1899.1	-0.439785
1905.17	-1.41268
1911.24	0.716194
1917.31	4.65796
1923.38	-0.35902
1929.45	2.63276
1935.51	-3.09185
1941.58	2.82216
1947.65	-0.733391
1953.72	2.9067
1959.79	2.20545
1965.86	-3.47045
1971.93	-1.71403
1978	-0.309624
1984.07	-0.502632
1990.14	1.60065
1996.21	-1.33084
2000	-0.592487

File: 22 - top_3.txt
400	-0.513211
406.069	5.80888
412.138	-0.36826
418.208	-4.41694
424.277	3.25875
430.346	-4.04161
436.415	-0.22755
442.485	-3.5915
448.554	-2.888
454.623	-1.21359
460.692	-5.69709
466.762	0.0148944
472.831	-2.33919
478.9	-3.14497
484.969	-3.21457
491.038	-7.16595
497.108	-6.36096
503.177	-11.8889
509.246	-14.908
515.315	-14.9761
521.385	-11.8388
527.454	-9.09009
533.523	-7.5076
539.592	-8.57526
545.661	-10.6675
551.731	-9.74341
557.8	-13.2433
563.869	-4.98153
569.938	-10.3428
576.008	-8.22278
582.077	-10.9934
588.146	-5.67782
594.215	-9.08415
600.284	-9.95016
606.354	-4.06957
612.423	-6.3286
618.492	-7.64085
624.561	-4.10518
630.631	-8.14381
636.7	-6.82047
642.769	-2.90763
648.838	-4.37461
654.908	-6.69095
660.977	-2.59699
667.046	-1.74986
673.115	-1.60261
679.184	-3.17842
685.254	-6.35385
691.323	-8.83079
697.392	0.244875
703.461	-4.29428
709.531	-7.57355
715.6	-5.85019
721.669	-0.269553
727.738	2.04953
733.807	2.61109
739.877	-3.94582
745.946	6.91363
752.015	-1.20963
758.084	3.24981
764.154	0.287137
770.223	10.379
776.292	5.56698
782.361	8.27314
788.431	3.04578
794.5	12.9391
800.569	10.9061
806.638	10.4007
812.707	14.5748
818.777	15.5132
824.846	12.8757
830.915	18.0441
836.984	17.1747
843.054	14.7474
849.123	13.8675
855.192	18.5858
861.261	13.5441
867.331	14.0062
873.4	9.15056
879.469	6.47199
885.538	5.12282
891.607	6.41376
897.677	2.52835
903.746	11.391
909.815	2.04493
915.884	11.0823
921.954	8.12209
928.023	-0.476307
934.092	6.51818
940.161	6.91209
946.23	5.37331
952.3	4.67283
958.369	0.937904
964.438	-1.70116
970.507	-5.43508
976.577	-4.14117
982.646	-6.3434
988.715	-7.84336
994.784	-9.3534
1000.85	-17.3577
1006.92	-18.1707
1012.99	-9.20158
1019.06	-19.3128
1025.13	-16.8643
1031.2	-6.64364
1037.27	-13.0564
1043.34	-19.1432
1049.41	-13.6892
1055.48	-12.6596
1061.55	-10.5266
1067.61	-11.0865
1073.68	-10.3372
1079.75	-14.8793
1085.82	-17.8387
1091.89	-13.8029
1097.96	-16.5436
1104.03	-12.4339
1110.1	-16.0204
1116.17	-2.80607
1122.24	-19.0347
1128.31	-12.9782
1134.38	-7.13211
1140.45	-1.88045
1146.51	-2.52129
1152.58	3.47714
1158.65	4.17604
1164.72	12.2934
1170.79	13.3836
1176.86	12.228
1182.93	19.7512
1189	22.354
1195.07	26.9693
1201.14	25.0866
1207.21	33.4298
1213.28	21.4181
1219.35	20.601
1225.41	32.0681
1231.48	37.0703
1237.55	36.7176
1243.62	37.3065
1249.69	49.7057
1255.76	54.3736
1261.83	53.8716
1267.9	69.9839
1273.97	78.9267
1280.04	109.318
1286.11	109.667
1292.18	128.324
1298.25	142.324
1304.31	183.816
1310.38	218.228
1316.45	234.018
1322.52	285.457
1328.59	300.613
1334.66	330.907
1340.73	356.342
1346.8	372.721
1352.87	361.155
1358.94	359.641
1365.01	307.069
1371.08	275.617
1377.15	251.184
1383.21	193.844
1389.28	171.622
1395.35	146.943
1401.42	119.251
1407.49	117.478
1413.56	89.078
1419.63	89.9267
1425.7	57.8206
1431.77	45.3962
1437.84	33.1308
1443.91	23.019
1449.98	17.8475
1456.05	22.3646
1462.11	10.9264
1468.18	14.2931
1474.25	-0.721606
1480.32	3.38943
1486.39	-1.72133
1492.46	6.8173
1498.53	14.553
1504.6	16.2408
1510.67	30.105
1516.74	38.1951
1522.81	52.0719
1528.88	67.7634
1534.95	84.6793
1541.01	117.527
1547.08	133.333
1553.15	170.924
1559.22	211.989
1565.29	251.404
1571.36	302.307
1577.43	352.958
1583.5	386.588
1589.57	439.528
1595.64	460.744
1601.71	456.821
1607.78	449.841
1613.85	422.204
1619.91	375.966
1625.98	322.871
1632.05	255.656
1638.12	208.212
1644.19	168.541
1650.26	130.564
1656.33	95.5407
1662.4	69.8675
1668.47	43.1085
1674.54	31.9394
1680.61	23.1875
1686.68	14.8337
1692.75	12.3302
1698.81	1.53217
1704.88	3.57411
1710.95	0.720922
1717.02	-3.95091
1723.09	-2.18805
1729.16	2.29125
1735.23	-1.77063
1741.3	0.500072
1747.37	1.59171
1753.44	-0.642756
1759.51	-0.810471
1765.58	3.1598
1771.65	0.737218
1777.71	2.30395
1783.78	-0.676652
1789.85	-1.2621
1795.92	3.17883
1801.99	1.07619
1808.06	2.72029
1814.13	-3.38586
1820.2	0.80868
1826.27	3.47094
1832.34	1.62636
1838.41	3.69261
1844.48	6.88325
1850.55	9.21391
1856.61	6.34509
1862.68	-2.73831
1868.75	-3.58117
1874.82	1.09383
1880.89	-1.88274
1886.96	0.196198
1893.03	-5.15564
1899.1	-5.9366
1905.17	-2.49796
1911.24	-5.18009
1917.31	-5.63052
1923.38	-5.46054
1929.45	-2.41531
1935.51	-6.17796
1941.58	0.942493
1947.65	0.485714
1953.72	-9.0774
1959.79	-2.70936
1965.86	-7.30719
1971.93	-7.80981
1978	2.67138
1984.07	-4.97788
1990.14	0.535957
1996.21	-4.36503
2000	-6.29547