Folder: Graphs/Example Data/Raman/CNT - TIM/Raytheon/Al foil/2010/11-22-10

Note: README.md
# Graphs
A macOS app that manages the organization of data files and graphs them.

Licensed under the MIT licensing terms: https://opensource.org/licenses/MIT

Hildreth wrote the precursor to Graphs, then called GraphBase, during his Ph.D. to help manage the data he was collecting as part of his research on Metal-assisted Chemical Etching of Silicon.  He was becoming overwhelmed by the hundreds of data files he was collecting every week and was inspired by the Papers and iTunes applications on OS X (now macOS) to create an application that managed data.  GraphBase provided an easy template to create a parser, a simple UI to organize data into hiarchical folders, and leveraged the DataGraph framework (http://www.visualdatatools.com/DataGraph/Framework/) for graphing.  DataGraph (http://www.visualdatatools.com/DataGraph/) is an amazing 2D graphing application and you will need to purchase a DataGraph license from Visual Data Tools in order to use Graphs.

Graphs is a rewrite of GraphBase in Swift written by Connor and then re-written again by Hildreth that has been open sourced for use by all.  Please not that you will need a DataGraph license to create the graph templates used by the DataGraph framework underlying Graphs.  Hildreth plans to continue evolving this application.  The next plan improvements are: multithreading for import and parsing using the new Results type in Swift; and begin switching over to SwiftUI for the UI.  Long term, we hope to add support for data analysis and extraction.

# Overview
Graphs is a data management tool that allows you to store your raw data files in a text formate (CSV, tab delimited, etc.) and then have those files parsed and graphed when selected.  Graphs uses the DataGraph fromework 

To use Graphs, first you create an example graph, what we call a Graph Template, in DataGraph.  Format the graph the way you want it to look and make sure that the Data Columns are in the same order as the columns in your data.  Next, you  add your "Graph Template" to Graphs using either the Graph Template Inspector on the right side of Graphs using using the "+" sign on the bottom left of the application.  You can also drag-and-drop the file onto a folder in the Source List.  Once you add a Graph Template, you can assign it to be the default Graph Template for a folder and any sub-folders using the Folder Inspector.

The second step is to make a Paser using the Parser Inspector.  It might be helpful to have an example file already in Graphs (see Step 3) because you can use the Text Inspector to see what lines your Experimental Details, Header, and Data start at.  Add a Parse Template using the + sign in the Parse Inspector's table and give the Parse Template a name.  If your data has experimental details at the top, then select the checkbox and set the starting and ending lines for this information.  If your data has a Header, select the Header checkbox, give it starting and ending line numbers, and then select the type of s

File: Al - B22a - top.txt
100	85.0757
108.249	110.815
116.498	78.7608
124.747	50.7963
132.996	36.1849
141.246	30.4059
149.495	10.5624
157.744	11.4302
165.993	12.4373
174.242	-1.00347
182.491	3.82274
190.74	3.25501
198.989	1.67542
207.238	-3.62689
215.487	-0.571586
223.737	3.5524
231.986	-6.45076
240.235	-18.141
248.484	-7.62218
256.733	-4.97178
264.982	-10.9271
273.231	-2.49142
281.48	3.16842
289.729	-0.235206
297.978	-17.2857
306.228	-6.29235
314.477	0.776631
322.726	-5.55966
330.975	-0.842066
339.224	-5.37068
347.473	-2.02503
355.722	-2.64824
363.971	-4.55428
372.22	-9.70558
380.47	-2.49172
388.719	-3.66584
396.968	-3.80991
405.217	-0.621695
413.466	0.622929
421.715	3.73588
429.964	-1.66726
438.213	-0.182852
446.462	6.38041
454.711	10.2406
462.961	-3.82144
471.21	-9.63347
479.459	-1.77078
487.708	-3.64628
495.957	-1.87908
504.206	-2.91573
512.455	2.41609
520.704	3.67519
528.953	-4.36346
537.202	6.60882
545.452	1.63246
553.701	-8.24302
561.95	1.97635
570.199	-1.81015
578.448	-2.82618
586.697	-4.47618
594.946	-7.02116
603.195	5.95697
611.444	0.680781
619.693	1.21623
627.943	-1.01066
636.192	-1.54995
644.441	-11.7835
652.69	1.5476
660.939	3.50472
669.188	0.899286
677.437	0.151401
685.686	1.13323
693.935	-10.6577
702.185	8.54116
710.434	3.1845
718.683	11.1327
726.932	-0.431947
735.181	-1.27254
743.43	-2.2808
751.679	11.5186
759.928	12.4005
768.177	9.42827
776.426	7.17363
784.676	6.49933
792.925	9.38139
801.174	9.19735
809.423	7.4961
817.672	13.5245
825.921	3.8706
834.17	7.23535
842.419	9.02516
850.668	16.3525
858.917	6.12885
867.167	8.79349
875.416	-5.6802
883.665	15.1655
891.914	3.39644
900.163	-1.44082
908.412	7.75959
916.661	5.16467
924.91	1.33133
933.159	0.782197
941.409	6.42131
949.658	9.20227
957.907	3.20838
966.156	5.67174
974.405	-3.34951
982.654	-13.6516
990.903	-0.709439
999.152	-15.677
1007.4	-3.47723
1015.65	-12.4991
1023.9	-0.719102
1032.15	-2.3685
1040.4	-5.38327
1048.65	4.80535
1056.9	2.99356
1065.15	-0.120294
1073.39	-11.3846
1081.64	-7.1307
1089.89	-2.72344
1098.14	-6.82593
1106.39	1.15555
1114.64	-5.04859
1122.89	7.85719
1131.14	4.44565
1139.39	17.194
1147.64	18.5847
1155.89	45.327
1164.13	34.6853
1172.38	48.9553
1180.63	30.5597
1188.88	39.5937
1197.13	44.9683
1205.38	62.8426
1213.63	76.5568
1221.88	92.8614
1230.13	110.605
1238.38	134.081
1246.63	154.835
1254.87	160.368
1263.12	199.542
1271.37	229.686
1279.62	274.546
1287.87	337.388
1296.12	415.867
1304.37	456.086
1312.62	534.334
1320.87	592.306
1329.12	636.931
1337.37	657.357
1345.61	621.096
1353.86	589.326
1362.11	504.013
1370.36	459.821
1378.61	370.437
1386.86	302.309
1395.11	237.408
1403.36	184.516
1411.61	136.349
1419.86	110.206
1428.11	59.4121
1436.35	51.4407
1444.6	17.7493
1452.85	17.9531
1461.1	2.93711
1469.35	14.8237
1477.6	1.95294
1485.85	-4.785
1494.1	4.35088
1502.35	47.7998
1510.6	77.8097
1518.85	100.7
1527.09	124.818
1535.34	204.391
1543.59	246.927
1551.84	319.539
1560.09	407.019
1568.34	524.051
1576.59	611.055
1584.84	668.965
1593.09	715.144
1601.34	687.529
1609.59	586.475
1617.83	457.055
1626.08	322.13
1634.33	232.731
1642.58	160.67
1650.83	106.414
1659.08	57.6039
1667.33	33.0097
1675.58	16.0765
1683.83	2.1247
1692.08	1.61444
1700.33	19.3513
1708.58	9.66847
1716.82	1.58034
1725.07	3.0574
1733.32	-4.93665
1741.57	2.47527
1749.82	6.33088
1758.07	-0.751241
1766.32	1.776
1774.57	-0.945546
1782.82	1.20646
1791.07	1.21813
1799.32	-4.34538
1807.56	6.21833
1815.81	2.22184
1824.06	-7.5749
1832.31	-5.31509
1840.56	-3.56888
1848.81	0.698201
1857.06	-5.84359
1865.31	-0.186295
1873.56	-0.101347
1881.81	2.66826
1890.06	-2.88964
1898.3	-6.68505
1906.55	6.63693
1914.8	8.42095
1923.05	7.76562
1931.3	4.57876
1939.55	-0.266542
1947.8	7.41673
1956.05	6.10513
1964.3	0.312917
1972.55	4.47878
1980.8	4.03398
1989.04	11.319
1997.29	3.74022
2005.54	0.473762
2013.79	3.72411
2022.04	1.05872
2030.29	4.7508
2038.54	4.87505
2046.79	3.91678
2055.04	1.41456
2063.29	-2.99529
2071.54	-3.39076
2079.78	1.29283
2088.03	-2.66056
2096.28	-2.46986
2104.53	-2.67408
2112.78	-0.0453805
2121.03	-4.17459
2129.28	-1.49467
2137.53	0.673716
2145.78	0.823156
2154.03	-2.84054
2162.28	-5.31104
2170.52	-5.87501
2178.77	-5.80524
2187.02	-2.84024
2195.27	-5.80285
2203.52	-2.26693
2211.77	-4.61667
2220.02	-0.778871
2228.27	-2.47367
2236.52	-5.68777
2244.77	3.36546
2253.02	6.04899
2261.27	-3.70353
2269.51	-3.56201
2277.76	-0.220795
2286.01	-3.81217
2294.26	-0.180413
2302.51	8.44431
2310.76	-4.16329
2319.01	2.44357
2327.26	17.0743
2335.51	0.0332657
2343.76	-0.64815
2352.01	4.72446
2360.25	-2.57066
2368.5	0.11171
2376.75	9.53323
2385	5.16161
2393.25	8.09444
2400	11.3901

File: Al - B22b - top.txt
100	69.0889
108.249	107.165
116.498	68.4157
124.747	52.8284
132.996	23.7547
141.246	32.8418
149.495	8.72589
157.744	14.4011
165.993	0.00547583
174.242	4.98503
182.491	5.1564
190.74	1.51309
198.989	10.0627
207.238	-6.34467
215.487	0.132071
223.737	-5.33923
231.986	2.0149
240.235	-5.12953
248.484	1.68517
256.733	9.06731
264.982	4.49779
273.231	-0.143065
281.48	-1.35611
289.729	2.87778
297.978	2.90268
306.228	1.47192
314.477	10.0366
322.726	1.76587
330.975	-0.161323
339.224	-6.57201
347.473	-1.82045
355.722	-9.25618
363.971	-7.43544
372.22	-2.59179
380.47	1.59529
388.719	-1.85648
396.968	-5.52213
405.217	1.63137
413.466	3.31856
421.715	-2.82995
429.964	16.073
438.213	3.05632
446.462	12.6942
454.711	10.1585
462.961	5.15078
471.21	-1.37993
479.459	-10.5076
487.708	1.08122
495.957	-6.18431
504.206	-4.91419
512.455	-4.72593
520.704	-15.7414
528.953	-6.84518
537.202	-11.4567
545.452	-8.90848
553.701	-3.50539
561.95	-3.98229
570.199	-2.83584
578.448	0.658685
586.697	-4.25578
594.946	-2.21064
603.195	-0.945127
611.444	5.74266
619.693	-3.07231
627.943	-2.04345
636.192	-0.144683
644.441	-6.092
652.69	13.0351
660.939	-0.459812
669.188	-0.434477
677.437	2.44364
685.686	-11.9723
693.935	-10.5539
702.185	-1.39949
710.434	-2.50916
718.683	-10.873
726.932	3.75067
735.181	-5.96402
743.43	-3.49683
751.679	3.69474
759.928	-7.15291
768.177	-4.53123
776.426	-5.60936
784.676	-6.15829
792.925	4.74415
801.174	3.79683
809.423	10.2973
817.672	8.93502
825.921	16.8348
834.17	9.59517
842.419	13.47
850.668	0.0120558
858.917	8.04803
867.167	3.01232
875.416	-0.815315
883.665	6.12407
891.914	-6.12189
900.163	-1.88413
908.412	-4.86299
916.661	1.50954
924.91	-5.97959
933.159	-4.72036
941.409	-6.49853
949.658	-4.4908
957.907	-0.131579
966.156	-5.68224
974.405	-10.3742
982.654	1.83832
990.903	-5.91438
999.152	-6.15522
1007.4	-7.72784
1015.65	10.8596
1023.9	9.92784
1032.15	14.2038
1040.4	5.81668
1048.65	0.662023
1056.9	-5.47772
1065.15	-0.672876
1073.39	2.74231
1081.64	-1.17559
1089.89	3.37932
1098.14	10.3154
1106.39	3.36234
1114.64	-8.27553
1122.89	19.2237
1131.14	14.0516
1139.39	28.3031
1147.64	41.5877
1155.89	40.4862
1164.13	57.4566
1172.38	58.5819
1180.63	59.4884
1188.88	60.1037
1197.13	62.4627
1205.38	88.2868
1213.63	78.7577
1221.88	90.9428
1230.13	107.937
1238.38	131.696
1246.63	144.466
1254.87	195.542
1263.12	210.224
1271.37	257.372
1279.62	282.584
1287.87	379.36
1296.12	389.002
1304.37	466.549
1312.62	546.695
1320.87	615.136
1329.12	675.68
1337.37	696.038
1345.61	678.411
1353.86	608.308
1362.11	549.839
1370.36	505.312
1378.61	421.946
1386.86	327.675
1395.11	234.542
1403.36	211.148
1411.61	156.687
1419.86	119.726
1428.11	92.3073
1436.35	52.8669
1444.6	41.6878
1452.85	38.0263
1461.1	17.3246
1469.35	4.12837
1477.6	6.47217
1485.85	-2.95421
1494.1	2.82955
1502.35	20.4307
1510.6	34.3008
1518.85	76.0636
1527.09	126.205
1535.34	171.156
1543.59	239.942
1551.84	291.016
1560.09	394.444
1568.34	508.126
1576.59	622.806
1584.84	704.745
1593.09	763.427
1601.34	761.914
1609.59	670.819
1617.83	539.034
1626.08	385.215
1634.33	267.853
1642.58	197.467
1650.83	130.059
1659.08	78.183
1667.33	34.6602
1675.58	18.3814
1683.83	12.3857
1692.08	2.57871
1700.33	10.1738
1708.58	5.16398
1716.82	6.30904
1725.07	2.42477
1733.32	-0.293601
1741.57	-1.40547
1749.82	-12.8282
1758.07	-13.1414
1766.32	-6.54189
1774.57	-6.40523
1782.82	-8.08544
1791.07	-18.3805
1799.32	-1.91762
1807.56	-8.94594
1815.81	-2.12719
1824.06	2.88223
1832.31	-3.09524
1840.56	-3.15494
1848.81	-10.7007
1857.06	-9.0736
1865.31	5.9377
1873.56	-9.59184
1881.81	-3.44881
1890.06	-2.10234
1898.3	-16.3104
1906.55	-1.13063
1914.8	-5.37795
1923.05	-2.99184
1931.3	-3.99574
1939.55	-5.45012
1947.8	-0.698411
1956.05	-3.42978
1964.3	-2.50045
1972.55	-7.49308
1980.8	-5.25208
1989.04	0.400214
1997.29	-2.772
2005.54	-4.70462
2013.79	0.143526
2022.04	4.74274
2030.29	0.342106
2038.54	-1.15259
2046.79	-2.99853
2055.04	-0.68603
2063.29	-1.23965
2071.54	-1.51975
2079.78	4.4548
2088.03	-0.487416
2096.28	1.61387
2104.53	-1.88791
2112.78	-0.346976
2121.03	-9.49597
2129.28	-8.63526
2137.53	-11.3249
2145.78	-11.1498
2154.03	-7.72123
2162.28	-9.20491
2170.52	-13.0823
2178.77	-9.14032
2187.02	-16.8036
2195.27	-21.7095
2203.52	-16.5784
2211.77	-16.9184
2220.02	-19.0656
2228.27	-22.6114
2236.52	-23.8812
2244.77	-28.153
2253.02	-27.0313
2261.27	-29.7542
2269.51	-20.3286
2277.76	-25.2806
2286.01	-27.1163
2294.26	-31.6303
2302.51	-20.1475
2310.76	-24.4465
2319.01	-33.5398
2327.26	-16.7531
2335.51	-28.3348
2343.76	-31.4957
2352.01	-32.4625
2360.25	-29.8109
2368.5	-32.3116
2376.75	-36.3532
2385	-30.6892
2393.25	-29.1738
2400	-38.9713

File: Al batch 22b - bottom_1.txt
100	88.6102
108.249	136.055
116.498	94.4795
124.747	78.312
132.996	50.8285
141.246	60.9801
149.495	41.9684
157.744	22.9143
165.993	29.7274
174.242	27.0826
182.491	14.3188
190.74	26.8924
198.989	26.0623
207.238	-0.0404589
215.487	5.33092
223.737	5.77889
231.986	-0.0742788
240.235	11.3006
248.484	5.24897
256.733	2.44854
264.982	-1.13075
273.231	8.68518
281.48	2.71379
289.729	2.97566
297.978	6.89746
306.228	9.45879
314.477	12.5764
322.726	-3.87559
330.975	2.14235
339.224	5.08638
347.473	1.42392
355.722	1.01748
363.971	-8.77026
372.22	-4.97001
380.47	12.6245
388.719	-10.0033
396.968	-5.07094
405.217	6.01509
413.466	1.49572
421.715	-13.3412
429.964	4.56463
438.213	-6.46504
446.462	3.57252
454.711	-3.92334
462.961	3.21514
471.21	-0.872032
479.459	-14.3514
487.708	-6.29533
495.957	-8.0007
504.206	-0.122152
512.455	-9.86155
520.704	-8.31438
528.953	-12.5108
537.202	-10.6163
545.452	-3.016
553.701	-2.93575
561.95	-7.14924
570.199	1.44693
578.448	1.89188
586.697	-12.5005
594.946	0.771706
603.195	-1.8832
611.444	-6.65175
619.693	-2.18054
627.943	-6.65762
636.192	-2.51896
644.441	-0.630911
652.69	-1.04892
660.939	-10.9463
669.188	-9.53079
677.437	-13.6569
685.686	-17.9564
693.935	-17.6925
702.185	-8.6959
710.434	-7.11262
718.683	-12.8039
726.932	-8.70826
735.181	-8.47375
743.43	-4.61372
751.679	2.3686
759.928	1.95134
768.177	-10.7274
776.426	-7.30015
784.676	-10.4566
792.925	-2.08054
801.174	2.00673
809.423	8.64223
817.672	1.99052
825.921	1.89472
834.17	-0.284203
842.419	16.4018
850.668	11.6106
858.917	6.81988
867.167	9.97852
875.416	-6.02024
883.665	9.39947
891.914	1.55898
900.163	5.60288
908.412	10.7689
916.661	6.6913
924.91	8.28453
933.159	11.2727
941.409	14.027
949.658	9.72007
957.907	6.65346
966.156	11.6661
974.405	3.65398
982.654	11.1984
990.903	5.77245
999.152	4.46371
1007.4	0.062901
1015.65	-4.93106
1023.9	-2.03364
1032.15	-1.44669
1040.4	9.24903
1048.65	-7.24367
1056.9	2.04849
1065.15	-5.79057
1073.39	-2.7206
1081.64	-2.75632
1089.89	-2.80455
1098.14	5.45215
1106.39	3.43331
1114.64	8.27534
1122.89	10.8812
1131.14	27.0411
1139.39	25.5523
1147.64	33.0016
1155.89	47.9088
1164.13	31.1116
1172.38	36.5671
1180.63	35.1456
1188.88	49.5809
1197.13	61.2642
1205.38	73.5457
1213.63	82.6137
1221.88	100.63
1230.13	131.493
1238.38	140.615
1246.63	164.139
1254.87	211.307
1263.12	214.068
1271.37	296.394
1279.62	315.64
1287.87	371.013
1296.12	446.894
1304.37	531.176
1312.62	585.933
1320.87	703.985
1329.12	748.77
1337.37	769.584
1345.61	745.161
1353.86	677.114
1362.11	598.311
1370.36	505.642
1378.61	426.715
1386.86	348.588
1395.11	282.336
1403.36	214.372
1411.61	166.867
1419.86	116.06
1428.11	85.4126
1436.35	52.5382
1444.6	45.3688
1452.85	16.398
1461.1	9.92849
1469.35	1.79203
1477.6	-3.37766
1485.85	-0.564549
1494.1	13.1296
1502.35	46.6774
1510.6	62.9361
1518.85	114.899
1527.09	147.143
1535.34	209.128
1543.59	286.92
1551.84	373.451
1560.09	485.111
1568.34	584.457
1576.59	722.862
1584.84	776.573
1593.09	832.158
1601.34	786.198
1609.59	686.967
1617.83	531.011
1626.08	384.04
1634.33	266.339
1642.58	190.626
1650.83	118.221
1659.08	70.8483
1667.33	40.8593
1675.58	21.8642
1683.83	21.3805
1692.08	9.73427
1700.33	3.66652
1708.58	-2.59704
1716.82	-4.47658
1725.07	-5.96737
1733.32	-5.65299
1741.57	-5.33119
1749.82	-10.3021
1758.07	-0.0522362
1766.32	-1.89233
1774.57	1.25959
1782.82	4.96768
1791.07	2.06108
1799.32	-4.50373
1807.56	-0.923935
1815.81	-8.24085
1824.06	5.94587
1832.31	-9.09005
1840.56	-3.75387
1848.81	-1.69058
1857.06	-2.09705
1865.31	11.995
1873.56	-7.66963
1881.81	-10.9208
1890.06	-7.51167
1898.3	-16.7406
1906.55	-11.7191
1914.8	-13.209
1923.05	-6.093
1931.3	-10.1247
1939.55	-5.06547
1947.8	-4.47546
1956.05	-10.3297
1964.3	-3.52844
1972.55	-7.75451
1980.8	-5.628
1989.04	1.26259
1997.29	2.9907
2005.54	7.01458
2013.79	2.48121
2022.04	1.78309
2030.29	2.43864
2038.54	-3.23349
2046.79	0.577433
2055.04	-4.5054
2063.29	-7.18648
2071.54	-8.05275
2079.78	-0.0757739
2088.03	-2.19395
2096.28	-8.93926
2104.53	-9.42531
2112.78	-8.3532
2121.03	1.82441
2129.28	-7.02049
2137.53	-0.720904
2145.78	-0.453021
2154.03	-3.37911
2162.28	-6.26648
2170.52	-2.37792
2178.77	0.570811
2187.02	-2.08396
2195.27	0.358088
2203.52	-8.93491
2211.77	-3.45075
2220.02	-3.64637
2228.27	3.25256
2236.52	2.90366
2244.77	-5.94192
2253.02	3.43725
2261.27	-1.0342
2269.51	-3.27471
2277.76	-1.6535
2286.01	0.371283
2294.26	-0.228633
2302.51	2.97348
2310.76	-2.97775
2319.01	-1.96118
2327.26	17.0533
2335.51	0.468266
2343.76	-10.2572
2352.01	10.3221
2360.25	13.1006
2368.5	4.3918
2376.75	5.8436
2385	6.10056
2393.25	12.7013
2400	17.1394

File: CNT batch 22a - bottom_1.txt
100	54.8238
108.249	91.7633
116.498	71.3399
124.747	42.0911
132.996	31.5412
141.246	24.5236
149.495	12.4433
157.744	8.07853
165.993	0.379256
174.242	9.80544
182.491	7.03324
190.74	-2.13061
198.989	-1.26683
207.238	5.72508
215.487	1.32886
223.737	8.65361
231.986	3.92682
240.235	6.70969
248.484	1.93196
256.733	4.58405
264.982	7.80317
273.231	9.8921
281.48	10.7893
289.729	4.03488
297.978	8.49909
306.228	-0.388478
314.477	-2.16115
322.726	6.94286
330.975	5.21381
339.224	3.3048
347.473	4.28945
355.722	1.71722
363.971	3.9239
372.22	3.80892
380.47	6.57662
388.719	5.48794
396.968	3.61319
405.217	5.22058
413.466	0.836343
421.715	12.3791
429.964	5.8632
438.213	3.74729
446.462	14.2442
454.711	8.12476
462.961	11.1332
471.21	15.3607
479.459	10.7829
487.708	8.91319
495.957	9.9994
504.206	-2.00398
512.455	8.57722
520.704	7.16702
528.953	4.16397
537.202	1.16636
545.452	4.75213
553.701	2.97203
561.95	2.53816
570.199	0.489606
578.448	-0.616574
586.697	-0.258041
594.946	7.58206
603.195	-7.00339
611.444	-4.25971
619.693	3.86335
627.943	-3.3422
636.192	-1.28126
644.441	-1.13454
652.69	-6.69554
660.939	2.90904
669.188	-2.10754
677.437	-9.80365
685.686	-10.6541
693.935	-9.88459
702.185	-1.8412
710.434	-3.73832
718.683	-13.6591
726.932	-1.42857
735.181	-5.5001
743.43	4.43576
751.679	-3.46432
759.928	1.52559
768.177	-4.62639
776.426	1.49976
784.676	1.49934
792.925	7.91413
801.174	-6.64558
809.423	7.12178
817.672	10.1342
825.921	10.4253
834.17	7.70081
842.419	6.09717
850.668	12.8069
858.917	-1.10875
867.167	-4.54321
875.416	2.25059
883.665	-3.93736
891.914	-10.4624
900.163	1.2579
908.412	-0.161364
916.661	0.269303
924.91	-2.78944
933.159	-5.17083
941.409	-2.65491
949.658	-9.35186
957.907	-9.87346
966.156	-7.18994
974.405	-14.3285
982.654	-13.6609
990.903	-6.09585
999.152	-0.246632
1007.4	-2.62006
1015.65	8.51648
1023.9	-6.87611
1032.15	6.71956
1040.4	-7.56283
1048.65	2.29355
1056.9	-7.72494
1065.15	-2.2019
1073.39	0.765939
1081.64	-5.36061
1089.89	0.597913
1098.14	-5.34653
1106.39	-12.4511
1114.64	-9.44781
1122.89	-4.16
1131.14	-1.9777
1139.39	3.4186
1147.64	7.56459
1155.89	12.2431
1164.13	8.02919
1172.38	14.8606
1180.63	23.1446
1188.88	22.6077
1197.13	21.9489
1205.38	25.5638
1213.63	29.0806
1221.88	45.4788
1230.13	61.0624
1238.38	88.4988
1246.63	93.9928
1254.87	124.33
1263.12	147.944
1271.37	174.255
1279.62	208.844
1287.87	246.461
1296.12	315.267
1304.37	360.585
1312.62	423.897
1320.87	510.415
1329.12	526.768
1337.37	568.322
1345.61	543.905
1353.86	515.504
1362.11	441.886
1370.36	367.71
1378.61	271.787
1386.86	219.481
1395.11	187.524
1403.36	142.011
1411.61	96.8009
1419.86	62.8829
1428.11	40.5097
1436.35	45.2826
1444.6	29.4867
1452.85	26.5831
1461.1	-11.2387
1469.35	-0.129911
1477.6	6.63154
1485.85	-16.1362
1494.1	15.8767
1502.35	28.2905
1510.6	28.8073
1518.85	58.3436
1527.09	95.8981
1535.34	147.607
1543.59	210.532
1551.84	288.357
1560.09	363.102
1568.34	455.343
1576.59	528.375
1584.84	601.769
1593.09	604.836
1601.34	580.604
1609.59	509.202
1617.83	394.196
1626.08	307.026
1634.33	219.208
1642.58	140.827
1650.83	101.92
1659.08	56.5317
1667.33	36.2948
1675.58	17.56
1683.83	15.6881
1692.08	7.80454
1700.33	2.36963
1708.58	4.23806
1716.82	-2.80905
1725.07	-7.93137
1733.32	1.0213
1741.57	1.27244
1749.82	1.40737
1758.07	10.2521
1766.32	10.5156
1774.57	7.22327
1782.82	-0.544365
1791.07	-1.35489
1799.32	-2.51341
1807.56	0.881513
1815.81	-9.09167
1824.06	-4.23517
1832.31	-5.46181
1840.56	-8.2534
1848.81	-3.82282
1857.06	-10.2554
1865.31	3.77928
1873.56	3.2124
1881.81	-0.589325
1890.06	6.3168
1898.3	0.00122833
1906.55	-1.74062
1914.8	-5.37457
1923.05	-9.66959
1931.3	-4.69201
1939.55	-8.37186
1947.8	-2.20422
1956.05	-4.53193
1964.3	-7.2271
1972.55	0.0974274
1980.8	-9.15662
1989.04	0.673271
1997.29	-13.5751
2005.54	-6.76215
2013.79	-4.94096
2022.04	-0.228683
2030.29	1.03358
2038.54	-12.6037
2046.79	-3.5079
2055.04	2.19496
2063.29	-0.561768
2071.54	-2.61565
2079.78	1.46233
2088.03	-2.56297
2096.28	-3.2856
2104.53	-1.64671
2112.78	-0.925613
2121.03	-2.28113
2129.28	1.47002
2137.53	-0.949982
2145.78	-0.834846
2154.03	-1.75871
2162.28	4.18478
2170.52	2.4096
2178.77	1.20515
2187.02	3.01413
2195.27	2.00439
2203.52	5.17734
2211.77	6.80491
2220.02	5.31667
2228.27	1.23363
2236.52	7.94917
2244.77	8.45163
2253.02	10.4109
2261.27	5.52324
2269.51	5.74516
2277.76	10.2635
2286.01	15.9935
2294.26	4.55987
2302.51	16.8825
2310.76	8.48921
2319.01	19.9623
2327.26	27.0354
2335.51	14.6255
2343.76	17.8773
2352.01	20.152
2360.25	15.3147
2368.5	20.705
2376.75	18.4133
2385	19.009
2393.25	18.5228
2400	26.9997