Folder: Graphs/Example Data/Raman/Kara/12-20-10/C-Si-Graphene

Note: README.md
# Graphs
A macOS app that manages the organization of data files and graphs them.

Licensed under the MIT licensing terms: https://opensource.org/licenses/MIT

Hildreth wrote the precursor to Graphs, then called GraphBase, during his Ph.D. to help manage the data he was collecting as part of his research on Metal-assisted Chemical Etching of Silicon.  He was becoming overwhelmed by the hundreds of data files he was collecting every week and was inspired by the Papers and iTunes applications on OS X (now macOS) to create an application that managed data.  GraphBase provided an easy template to create a parser, a simple UI to organize data into hiarchical folders, and leveraged the DataGraph framework (http://www.visualdatatools.com/DataGraph/Framework/) for graphing.  DataGraph (http://www.visualdatatools.com/DataGraph/) is an amazing 2D graphing application and you will need to purchase a DataGraph license from Visual Data Tools in order to use Graphs.

Graphs is a rewrite of GraphBase in Swift written by Connor and then re-written again by Hildreth that has been open sourced for use by all.  Please not that you will need a DataGraph license to create the graph templates used by the DataGraph framework underlying Graphs.  Hildreth plans to continue evolving this application.  The next plan improvements are: multithreading for import and parsing using the new Results type in Swift; and begin switching over to SwiftUI for the UI.  Long term, we hope to add support for data analysis and extraction.

# Overview
Graphs is a data management tool that allows you to store your raw data files in a text formate (CSV, tab delimited, etc.) and then have those files parsed and graphed when selected.  Graphs uses the DataGraph fromework 

To use Graphs, first you create an example graph, what we call a Graph Template, in DataGraph.  Format the graph the way you want it to look and make sure that the Data Columns are in the same order as the columns in your data.  Next, you  add your "Graph Template" to Graphs using either the Graph Template Inspector on the right side of Graphs using using the "+" sign on the bottom left of the application.  You can also drag-and-drop the file onto a folder in the Source List.  Once you add a Graph Template, you can assign it to be the default Graph Template for a folder and any sub-folders using the Folder Inspector.

The second step is to make a Paser using the Parser Inspector.  It might be helpful to have an example file already in Graphs (see Step 3) because you can use the Text Inspector to see what lines your Experimental Details, Header, and Data start at.  Add a Parse Template using the + sign in the Parse Inspector's table and give the Parse Template a name.  If your data has experimental details at the top, then select the checkbox and set the starting and ending lines for this information.  If your data has a Header, select the Header checkbox, give it starting and ending line numbers, and then select the type of s

File: CSGbulk3_1.txt
100	206.516
112.793	219.566
125.586	230.588
138.38	224.289
151.173	225.776
163.966	193.963
176.759	192.003
189.552	177.07
202.345	174.633
215.139	168.88
227.932	173.014
240.725	177.195
253.518	196.137
266.311	182.957
279.104	186.055
291.898	188.931
304.691	194.396
317.484	191.204
330.277	189.821
343.07	182.6
355.864	173.29
368.657	173.457
381.45	164.444
394.243	160.481
407.036	162.068
419.829	160.269
432.623	167.99
445.416	167.355
458.209	169.908
471.002	181.575
483.795	207.755
496.589	237.648
509.382	380.15
522.175	826.891
534.968	256.621
547.761	130.154
560.554	118.517
573.348	104.673
586.141	108.266
598.934	113.456
611.727	111.463
624.52	107.24
637.313	110.683
650.107	118.194
662.9	117.379
675.693	116.007
688.486	108.137
701.279	116.993
714.073	111.197
726.866	111.313
739.659	112.728
752.452	107.187
765.245	124.413
778.038	119.002
790.832	128.782
803.625	131.164
816.418	124.219
829.211	129.996
842.004	132.098
854.797	131.093
867.591	129.052
880.384	130.873
893.177	132.684
905.97	126.72
918.763	131.634
931.557	142.044
944.35	153.358
957.143	149.923
969.936	137.64
982.729	146.215
995.522	146.304
1008.32	131.513
1021.11	133
1033.9	135.189
1046.7	150.369
1059.49	156.261
1072.28	157.483
1085.07	170.721
1097.87	183.035
1110.66	201.539
1123.45	223.531
1136.25	244.156
1149.04	279.253
1161.83	316.235
1174.63	362.281
1187.42	381.036
1200.21	425.729
1213.01	444.224
1225.8	482.917
1238.59	521.607
1251.39	577.439
1264.18	600.967
1276.97	651.909
1289.77	689.869
1302.56	752.006
1315.35	800.951
1328.15	874.317
1340.94	905.753
1353.73	885.559
1366.52	874.411
1379.32	816.164
1392.11	760.192
1404.9	720.009
1417.7	680.09
1430.49	638.205
1443.28	588.96
1456.08	558.945
1468.87	560.143
1481.66	548.352
1494.46	550.527
1507.25	534.829
1520.04	541.844
1532.84	565.217
1545.63	579.885
1558.42	662.123
1571.22	769.404
1584.01	925.037
1596.8	1085.79
1609.59	1081.21
1622.39	896.07
1635.18	642.423
1647.97	440.434
1660.77	313.021
1673.56	259.108
1686.35	211.727
1699.15	180.108
1711.94	144.81
1724.73	124.523
1737.53	114.412
1750.32	102.427
1763.11	105.996
1775.91	97.4634
1788.7	94.7924
1801.49	85.6255
1814.29	90.1405
1827.08	83.9368
1839.87	77.9625
1852.67	81.2241
1865.46	82.4719
1878.25	91.4902
1891.04	82.1146
1903.84	84.6369
1916.63	77.0122
1929.42	81.156
1942.22	75.9337
1955.01	76.5981
1967.8	80.1026
1980.6	82.693
1993.39	80.0483
2006.18	78.2593
2018.98	78.357
2031.77	78.1227
2044.56	83.2037
2057.36	78.7326
2070.15	82.7791
2082.94	83.891
2095.74	76.296
2108.53	74.8554
2121.32	83.5917
2134.12	80.1059
2146.91	79.0266
2159.7	80.0852
2172.49	84.4215
2185.29	87.0008
2198.08	82.2363
2210.87	86.183
2223.67	86.4171
2236.46	81.9649
2249.25	86.3544
2262.05	93.9226
2274.84	93.0184
2287.63	93.2381
2300.43	93.2082
2313.22	95.65
2326.01	100.814
2338.81	120.414
2351.6	105.774
2364.39	106.463
2377.19	110.994
2389.98	113.704
2402.77	116.913
2415.56	127.749
2428.36	134.682
2441.15	148.577
2453.94	137.68
2466.74	144.141
2479.53	144.343
2492.32	157.977
2505.12	150.627
2517.91	157.907
2530.7	165.814
2543.5	167.896
2556.29	165.612
2569.08	174.485
2581.88	180.409
2594.67	181.276
2607.46	179.914
2620.26	197.446
2633.05	188.135
2645.84	192.242
2658.64	204.36
2671.43	210.943
2684.22	212.596
2697.01	206.543
2709.81	212.29
2722.6	214.945
2735.39	213.029
2748.19	223.266
2760.98	219.254
2773.77	229.203
2786.57	222.491
2799.36	230.982
2812.15	236.824
2824.95	218.557
2837.74	231.122
2850.53	235.633
2863.33	245.609
2876.12	237.398
2888.91	242.318
2901.71	240.421
2914.5	249.769
2927.29	237.468
2940.09	253.083
2952.88	229.403
2965.67	246.906
2978.46	234.151
2991.26	230.245
3004.05	219.601
3016.84	215.609
3029.64	210.546
3042.43	196.627
3055.22	188.257
3068.02	184.656
3080.81	184.88
3093.6	174.865
3106.4	170.094
3119.19	179.078
3131.98	179.087
3144.78	176.415
3157.57	170.327
3170.36	173.895
3183.16	178.068
3195.95	175.149
3208.74	178.258
3221.54	166.808
3234.33	159.295
3247.12	151.412
3259.91	147.128
3272.71	141.203
3285.5	129.367
3298.29	130.05
3311.09	129.451
3323.88	121.67
3336.67	124.674
3349.47	119.237
3362.26	123.447
3375.05	114.781
3387.85	123.274
3400.64	115.183
3413.43	120.96
3426.23	114.799
3439.02	123.705
3451.81	120.099
3464.61	116.708
3477.4	116.631
3490.19	117.889
3502.99	113.344
3515.78	120.361
3528.57	114.986
3541.36	118.918
3554.16	121.747
3566.95	125.179
3579.74	127.684
3592.54	131.062
3605.33	126.027
3618.12	133.699
3630.92	129.717
3643.71	132.004
3656.5	123.929
3669.3	124.606
3682.09	122.755
3694.88	128.243
3700	129.391