Folder: Graphs/Example Data/Raman/Kara/12-20-10/Si wafer

Note: README.md
# Graphs
A macOS app that manages the organization of data files and graphs them.

Licensed under the MIT licensing terms: https://opensource.org/licenses/MIT

Hildreth wrote the precursor to Graphs, then called GraphBase, during his Ph.D. to help manage the data he was collecting as part of his research on Metal-assisted Chemical Etching of Silicon.  He was becoming overwhelmed by the hundreds of data files he was collecting every week and was inspired by the Papers and iTunes applications on OS X (now macOS) to create an application that managed data.  GraphBase provided an easy template to create a parser, a simple UI to organize data into hiarchical folders, and leveraged the DataGraph framework (http://www.visualdatatools.com/DataGraph/Framework/) for graphing.  DataGraph (http://www.visualdatatools.com/DataGraph/) is an amazing 2D graphing application and you will need to purchase a DataGraph license from Visual Data Tools in order to use Graphs.

Graphs is a rewrite of GraphBase in Swift written by Connor and then re-written again by Hildreth that has been open sourced for use by all.  Please not that you will need a DataGraph license to create the graph templates used by the DataGraph framework underlying Graphs.  Hildreth plans to continue evolving this application.  The next plan improvements are: multithreading for import and parsing using the new Results type in Swift; and begin switching over to SwiftUI for the UI.  Long term, we hope to add support for data analysis and extraction.

# Overview
Graphs is a data management tool that allows you to store your raw data files in a text formate (CSV, tab delimited, etc.) and then have those files parsed and graphed when selected.  Graphs uses the DataGraph fromework 

To use Graphs, first you create an example graph, what we call a Graph Template, in DataGraph.  Format the graph the way you want it to look and make sure that the Data Columns are in the same order as the columns in your data.  Next, you  add your "Graph Template" to Graphs using either the Graph Template Inspector on the right side of Graphs using using the "+" sign on the bottom left of the application.  You can also drag-and-drop the file onto a folder in the Source List.  Once you add a Graph Template, you can assign it to be the default Graph Template for a folder and any sub-folders using the Folder Inspector.

The second step is to make a Paser using the Parser Inspector.  It might be helpful to have an example file already in Graphs (see Step 3) because you can use the Text Inspector to see what lines your Experimental Details, Header, and Data start at.  Add a Parse Template using the + sign in the Parse Inspector's table and give the Parse Template a name.  If your data has experimental details at the top, then select the checkbox and set the starting and ending lines for this information.  If your data has a Header, select the Header checkbox, give it starting and ending line numbers, and then select the type of s

File: Siwafer_1.txt
400	112.539
412.576	110.321
425.152	104.491
437.729	105.02
450.305	89.5312
462.881	69.445
475.457	77.21
488.034	97.6452
500.61	154.309
513.186	1158.1
525.762	3610.47
538.338	469.648
550.915	197.971
563.491	149.327
576.067	116.746
588.643	101.266
601.219	100.659
613.796	111.576
626.372	114.832
638.948	102.155
651.524	108.06
664.101	106.833
676.677	109.507
689.253	93.8287
701.829	92.7906
714.406	94.1442
726.982	84.6064
739.558	81.4624
752.134	95.047
764.71	105.332
777.287	106.928
789.863	105.865
802.439	106.32
815.015	118.29
827.591	127.261
840.168	118.905
852.744	117.969
865.32	111.049
877.896	106.062
890.473	110.897
903.049	97.3791
915.625	93.2
928.201	112.144
940.777	239.088
953.354	277.964
965.93	281.564
978.506	282.938
991.082	236.2
1003.66	134.756
1016.23	96.6321
1028.81	80.0734
1041.39	64.6043
1053.96	47.4695
1066.54	42.2492
1079.12	42.6749
1091.69	33.25
1104.27	26.9017
1116.84	32.0803
1129.42	23.8481
1142	25.6483
1154.57	19.8444
1167.15	20.3701
1179.73	18.9892
1192.3	18.1305
1204.88	12.5812
1217.45	17.7744
1230.03	15.6
1242.61	18.5958
1255.18	16.8774
1267.76	18.2335
1280.34	17.8744
1292.91	13.3456
1305.49	16.4106
1318.06	19.4772
1330.64	18.2488
1343.22	14.2674
1355.79	13.4888
1368.37	18.9157
1380.95	15.2437
1393.52	18.2284
1406.1	17.7855
1418.67	17.1649
1431.25	18.4942
1443.83	19.4449
1456.4	18.7198
1468.98	25.2682
1481.55	16.8362
1494.13	16.1963
1506.71	17.2029
1519.28	17.7714
1531.86	14.0439
1544.44	12.7772
1557.01	20.2803
1569.59	15.4697
1582.16	15.4415
1594.74	13.1832
1607.32	13.2782
1619.89	14.4585
1632.47	15.1841
1645.05	11.0849
1657.62	12.7659
1670.2	17.1493
1682.77	13.7692
1695.35	13.2383
1707.93	18.2595
1720.5	15.8242
1733.08	15.0871
1745.66	13.4156
1758.23	10.8078
1770.81	16.8518
1783.38	7.64574
1795.96	13.241
1808.54	14.3614
1821.11	12.5464
1833.69	8.29929
1846.27	10.1359
1858.84	14.9002
1871.42	13.8
1883.99	19.2711
1896.57	17.935
1909.15	14.5511
1921.72	14.1217
1934.3	15.3481
1946.875	13.877
1959.45	17.3124
1972.03	17.5466
1984.6	17.9423
1997.18	14.3709
2009.76	13.4413
2022.33	14.8479
2034.91	11.9052
2047.48	14.7634
2060.06	17.1735
2072.64	16.3252
2085.21	17.8405
2097.79	15.9508
2110.37	19.8533
2122.94	16.0441
2135.52	17.4543
2148.09	15.469
2160.67	16.1102
2173.25	14.0566
2185.82	18.8786
2198.4	22.7068
2210.98	21.2343
2223.55	17.7219
2236.13	20.8873
2248.7	21.4509
2261.28	25.1011
2273.86	22.7001
2286.43	22.4011
2299.01	20.9412
2311.59	22.2795
2324.16	23.6819
2336.74	96.9096
2349.31	20.0062
2361.89	28.5633
2374.47	23.1339
2387.04	25.392
2399.62	28.7323
2412.2	30.2841
2424.77	29.863
2437.35	30.1396
2449.92	30.2561
2462.5	30.5723
2475.08	31.292
2487.65	29.3187
2500.23	30.7325
2512.8	32.5321
2525.38	37.512
2537.96	33.7659
2550.53	35.1891
2563.11	31.9985
2575.69	32.2859
2588.26	33.452
2600.84	34.6804
2613.41	36.0978
2625.99	35.7507
2638.57	34.9155
2651.14	37.185
2663.72	36.0859
2676.3	37.4325
2688.87	43.0632
2701.45	39.0456
2714.02	40.6006
2726.6	40.4167
2739.18	41.5781
2751.75	41.2761
2764.33	38.6116
2776.91	43.7062
2789.48	43.5539
2802.06	39.0587
2814.63	40.221
2827.21	49.1231
2839.79	45.4097
2852.36	44.6843
2864.94	47.5152
2877.52	48.7813
2890.09	42.2908
2902.67	46.8226
2915.24	45.502
2927.82	49.6107
2940.4	49.566
2952.97	49.044
2965.55	54.0699
2978.125	49.8298
2990.7	48.5128
3003.28	51.1602
3015.85	47.7595
3028.43	51.9551
3041.01	50.8782
3053.58	50.8817
3066.16	53.5973
3078.73	51.2057
3091.31	54.335
3103.89	52.5873
3116.46	55.535
3129.04	54.4409
3141.62	60.4233
3154.19	55.8751
3166.77	53.5021
3179.34	56.3134
3191.92	61.7614
3204.5	53.7482
3217.07	65.471
3229.65	56.3579
3242.23	60.1669
3254.8	58.1695
3267.38	61.6799
3279.95	54.8063
3292.53	54.9592
3305.11	55.4885
3317.68	62.2147
3330.26	53.8295
3342.84	56.135
3355.41	59.3024
3367.99	64.335
3380.56	59.5116
3393.14	63.3197
3405.72	63.8456
3418.29	65.5917
3430.87	66.9308
3443.45	62.2986
3456.02	63.2113
3468.6	70.4775
3481.17	70.3812
3493.75	66.1231
3506.33	59.8108
3518.9	67.5788
3531.48	66.1788
3544.05	64.54
3556.63	66.8157
3569.21	65.1049
3581.78	66.5616
3594.36	62.3129
3606.94	66.8109
3619.51	69.8989
3632.09	68.1008
3644.66	68.2424
3657.24	70.6788
3669.82	69.8601
3682.39	69.4142
3694.97	73.1778
3700	64.5919

File: Siwafer_2.txt
400	118.538
412.576	111.495
425.152	112.855
437.729	104.21
450.305	91.4911
462.881	69.8774
475.457	78.3989
488.034	99.1946
500.61	155.451
513.186	1141.86
525.762	3582.8
538.338	459.781
550.915	192.683
563.491	150.318
576.067	121.495
588.643	100.445
601.219	97.8654
613.796	110.318
626.372	114.266
638.948	99.0168
651.524	103.898
664.101	102.417
676.677	111.343
689.253	97.3591
701.829	88.3396
714.406	85.3783
726.982	83.7227
739.558	92.8025
752.134	94.1716
764.71	101.184
777.287	98.1497
789.863	108.313
802.439	117.253
815.015	121.103
827.591	122.604
840.168	118.65
852.744	117.347
865.32	112.602
877.896	111.963
890.473	102.47
903.049	91.4143
915.625	86.6333
928.201	120.439
940.777	233.609
953.354	288.125
965.93	281.91
978.506	296.828
991.082	249.825
1003.66	138.739
1016.23	105.499
1028.81	87.383
1041.39	54.6163
1053.96	55.0638
1066.54	40.232
1079.12	45.7113
1091.69	34.1145
1104.27	33.2983
1116.84	28.6796
1129.42	27.3749
1142	24.5976
1154.57	20.9408
1167.15	22.9031
1179.73	17.5931
1192.3	19.2
1204.88	20.1657
1217.45	14.5243
1230.03	19.8307
1242.61	16.0064
1255.18	16.7859
1267.76	17.2067
1280.34	17.2619
1292.91	19.2739
1305.49	19.5944
1318.06	16.3194
1330.64	19.3421
1343.22	20.3515
1355.79	14.4188
1368.37	15.3711
1380.95	21.669
1393.52	17.5482
1406.1	18.7773
1418.67	17.6266
1431.25	18.6471
1443.83	17.0449
1456.4	26.7699
1468.98	22.6287
1481.55	16.1346
1494.13	17.2836
1506.71	15.6372
1519.28	16.4932
1531.86	17.6698
1544.44	13.5772
1557.01	25.4224
1569.59	17.9175
1582.16	10.3401
1594.74	10.1048
1607.32	15.6258
1619.89	15.1341
1632.47	11.6915
1645.05	12.8283
1657.62	13.1495
1670.2	10.2769
1682.77	13.8824
1695.35	14.5059
1707.93	12.7134
1720.5	15.8264
1733.08	17.5544
1745.66	10.2
1758.23	17.9694
1770.81	16.4634
1783.38	11.809
1795.96	12.7778
1808.54	11.3807
1821.11	14.5757
1833.69	13.7413
1846.27	9.39806
1858.84	14.8465
1871.42	17.0929
1883.99	16.4824
1896.57	11.8121
1909.15	15.9007
1921.72	15.9241
1934.3	14.6811
1946.875	10.8167
1959.45	13.4
1972.03	17.8327
1984.6	12.6572
1997.18	12.1196
2009.76	12.1258
2022.33	11.5278
2034.91	9.80163
2047.48	15.5298
2060.06	18.6059
2072.64	18.4978
2085.21	15.197
2097.79	14.2114
2110.37	19.2875
2122.94	13.3472
2135.52	15.6034
2148.09	16.1846
2160.67	18.3535
2173.25	14.1445
2185.82	16.0636
2198.4	16.7419
2210.98	18.2352
2223.55	19.0341
2236.13	16.1104
2248.7	17.3988
2261.28	15.1367
2273.86	20.753
2286.43	24.6506
2299.01	20.0243
2311.59	22.42
2324.16	19.332
2336.74	94.1145
2349.31	20.2456
2361.89	21.3194
2374.47	22.2401
2387.04	18.6965
2399.62	26.1319
2412.2	26.967
2424.77	25.3616
2437.35	30.4975
2449.92	24.378
2462.5	25.4687
2475.08	26.4174
2487.65	28.8713
2500.23	26.2019
2512.8	26.1345
2525.38	33.1395
2537.96	27.7352
2550.53	28.7216
2563.11	28.5895
2575.69	29.6829
2588.26	32.1982
2600.84	25.8235
2613.41	31.2601
2625.99	34.0883
2638.57	27.6344
2651.14	31.8933
2663.72	26.5432
2676.3	30.7119
2688.87	31.51
2701.45	33.8758
2714.02	30.8445
2726.6	32.5003
2739.18	34.4904
2751.75	32.3819
2764.33	32.8331
2776.91	29.1292
2789.48	33.3731
2802.06	38.5328
2814.63	36.7781
2827.21	32.1517
2839.79	32.8015
2852.36	36.5091
2864.94	36.2434
2877.52	37.785
2890.09	40.6697
2902.67	35.3223
2915.24	37.3334
2927.82	40.7301
2940.4	37.4515
2952.97	36.8004
2965.55	37.9237
2978.125	44.8145
2990.7	39.2771
3003.28	37.9364
3015.85	34.9972
3028.43	40.6694
3041.01	37.6934
3053.58	42.4077
3066.16	38.3644
3078.73	39.841
3091.31	42.9836
3103.89	39.6718
3116.46	41.7074
3129.04	39.5937
3141.62	42.2549
3154.19	47.9757
3166.77	48.1302
3179.34	50.7019
3191.92	46.6271
3204.5	45.6141
3217.07	47.9262
3229.65	45.9345
3242.23	47.7875
3254.8	48.7604
3267.38	47.9205
3279.95	45.7268
3292.53	50.8954
3305.11	47.0978
3317.68	46.1649
3330.26	54.5395
3342.84	54.6302
3355.41	47.5143
3367.99	52.3009
3380.56	56.4447
3393.14	50.7365
3405.72	48.3093
3418.29	53.8446
3430.87	55.0408
3443.45	52.172
3456.02	47.94
3468.6	45.9508
3481.17	48.8519
3493.75	50.7529
3506.33	59.4469
3518.9	53.3379
3531.48	53.2404
3544.05	55.0278
3556.63	52.7124
3569.21	55.7264
3581.78	52.0665
3594.36	55.8979
3606.94	57.0855
3619.51	55.9912
3632.09	57.1609
3644.66	60.7506
3657.24	58.5196
3669.82	59.0034
3682.39	55.605
3694.97	56.8141
3700	59.9623

File: Siwafer_3.txt
400	115.03
412.576	104.717
425.152	113.041
437.729	105.029
450.305	84.6
462.881	69.6582
475.457	76.0433
488.034	97.2751
500.61	149.097
513.186	1130.13
525.762	3589.26
538.338	470.664
550.915	200.335
563.491	136.852
576.067	110.947
588.643	100.8
601.219	92.9513
613.796	107.823
626.372	111.341
638.948	94.871
651.524	101.6
664.101	107.434
676.677	100.949
689.253	96.6447
701.829	88.8698
714.406	86.0589
726.982	90.2598
739.558	87.4598
752.134	96.6909
764.71	96.1038
777.287	101.542
789.863	98.3791
802.439	106.602
815.015	118.728
827.591	121.882
840.168	120.073
852.744	119.053
865.32	113.899
877.896	109.682
890.473	98.4474
903.049	94.4212
915.625	98.5721
928.201	116.081
940.777	242.752
953.354	282.168
965.93	276.328
978.506	288.158
991.082	234.428
1003.66	123.891
1016.23	99.0552
1028.81	77.6734
1041.39	55.8
1053.96	45.0739
1066.54	39.4869
1079.12	29.5404
1091.69	33.3161
1104.27	28.7727
1116.84	27.3607
1129.42	26.2146
1142	21.4926
1154.57	20.9262
1167.15	19.2106
1179.73	15.9369
1192.3	14.1218
1204.88	15.6563
1217.45	11.5357
1230.03	13.0518
1242.61	15.9862
1255.18	14.3838
1267.76	18.0659
1280.34	15.5489
1292.91	12.6815
1305.49	16.5081
1318.06	14.9942
1330.64	15.449
1343.22	13.0755
1355.79	18.2929
1368.37	22.6795
1380.95	13.0486
1393.52	14.4579
1406.1	16.833
1418.67	12.9558
1431.25	15.1529
1443.83	18.6421
1456.4	17.5303
1468.98	22.5209
1481.55	14.0654
1494.13	13.52
1506.71	15.358
1519.28	12.6
1531.86	12.0658
1544.44	14.521
1557.01	22.2362
1569.59	11.0624
1582.16	10.5705
1594.74	9.18743
1607.32	11.2
1619.89	16.2682
1632.47	11.7403
1645.05	13.7149
1657.62	8.69901
1670.2	9.10198
1682.77	14.7276
1695.35	15.2383
1707.93	14.6485
1720.5	17.3277
1733.08	17.4792
1745.66	16.3418
1758.23	13.0664
1770.81	14.1858
1783.38	10.5632
1795.96	15.8222
1808.54	15.0341
1821.11	14.7255
1833.69	11.3733
1846.27	11.7015
1858.84	15.3376
1871.42	12.8464
1883.99	10.8629
1896.57	11.0223
1909.15	13.8403
1921.72	13.4807
1934.3	10.6682
1946.875	14.1222
1959.45	11.0064
1972.03	14.7431
1984.6	17.1985
1997.18	13.2299
2009.76	13.3893
2022.33	12.7414
2034.91	14.2964
2047.48	14.913
2060.06	16.7322
2072.64	16.9425
2085.21	13.6
2097.79	13.8815
2110.37	14.3905
2122.94	14.9984
2135.52	13.2573
2148.09	14.6025
2160.67	15.1197
2173.25	13.7401
2185.82	14.3988
2198.4	16.7124
2210.98	16.7141
2223.55	18.3788
2236.13	20.2459
2248.7	14.2096
2261.28	18.4108
2273.86	18.6514
2286.43	20.3298
2299.01	18.0365
2311.59	21.4744
2324.16	18.5174
2336.74	98.1697
2349.31	17.3362
2361.89	22.5402
2374.47	18.4314
2387.04	22.5748
2399.62	21.2557
2412.2	22.0879
2424.77	25.1445
2437.35	19.2495
2449.92	25.7849
2462.5	23.4009
2475.08	21.3049
2487.65	24.2382
2500.23	24.2669
2512.8	23.9014
2525.38	29.8314
2537.96	27.2447
2550.53	28.6866
2563.11	27.4005
2575.69	27.012
2588.26	28.1472
2600.84	25.7466
2613.41	30.0534
2625.99	30.848
2638.57	27.9087
2651.14	30.1452
2663.72	29.6302
2676.3	28.6228
2688.87	29.6938
2701.45	28.8524
2714.02	33.0196
2726.6	32.4714
2739.18	33.2519
2751.75	32.5467
2764.33	32.0235
2776.91	32.4837
2789.48	31.5654
2802.06	31.6869
2814.63	33.1541
2827.21	34.4894
2839.79	37.3936
2852.36	33.946
2864.94	37.0579
2877.52	33.46
2890.09	29.175
2902.67	38.8171
2915.24	39.0705
2927.82	36.9694
2940.4	38.7657
2952.97	37.1343
2965.55	40.4186
2978.125	42.5642
2990.7	33.8769
3003.28	41.5529
3015.85	41.6044
3028.43	37.7992
3041.01	40.8654
3053.58	36.7682
3066.16	38.6849
3078.73	39.6747
3091.31	45.4732
3103.89	38.4545
3116.46	36.117
3129.04	37.5531
3141.62	41.8741
3154.19	42.7482
3166.77	41.577
3179.34	44.2442
3191.92	44.764
3204.5	49.0676
3217.07	40.0247
3229.65	41.1985
3242.23	47.1852
3254.8	42.7976
3267.38	44.4883
3279.95	47.4916
3292.53	39.9975
3305.11	48.4547
3317.68	50.2037
3330.26	53.8378
3342.84	50.3317
3355.41	43.9812
3367.99	50.4938
3380.56	47.1817
3393.14	51.059
3405.72	47.384
3418.29	51.2609
3430.87	47.5109
3443.45	52.5295
3456.02	52.2559
3468.6	46.9462
3481.17	52.2968
3493.75	47.7031
3506.33	54.8557
3518.9	46.6293
3531.48	50.1289
3544.05	53.5969
3556.63	56.9952
3569.21	56.019
3581.78	46.6794
3594.36	57.6866
3606.94	54.2779
3619.51	56.5785
3632.09	54.1942
3644.66	64.2589
3657.24	59.4613
3669.82	51.3388
3682.39	55.2067
3694.97	57.4876
3700	57.678